File: Generating XRD fingerprints/INPUT/Detrital data/10_1_SEPT_PF_FILTER.txt
Filename:
	C:\Program Files\Thermo Electron\WinXRD\Datafiles\FIEN\10_1_SEPT_FT.pk

File Created:
	April 15, 2019 - 03:12 PM

Specimen Id:
	10_1_SEPT FILTER

Specimen Name:

Specimen Description:

Comment:
Scan Type: 2Theta Scan
Start Angle: 1 deg.
Stop Angle: 65 deg.
Num Points: 3201
Step Size: 0.02 deg.
Scan Rate: 1.000000
Scan Mode: Continuous
Wavelength: 1.540562
\Kalpha1: 1.540562	\Kalpha2: 1.544390	\Kbeta: 1.392218

Optics:
		Detector:
			 Type: Fixed Slits
		Tube:
			 Type: Fixed Slits

Datas:
Peaks:

Position        Dspace          ESD(P)          Corr.Fact       Intensity       Rel.Int.        FWHM(L)         ESD(L)          Area            Source                  Curve           Strain  CSize   CSize_Source
[deg]           [A]             [deg]           [deg]           [CPS]           [CPS]           [deg]           [deg]           [deg]           [--]                    [--]            [--]    [--]    [--]
  2.8200        31.3038           0.0000          0.0000            50.00         1.54          0.0200            0.0000           2.0000       PFind                   None            0.00    0.00    None
  2.8800        30.6517           0.0000          0.0000            43.33         1.33          0.1600            0.0000           0.8667       PFind                   None            0.00    0.00    None
  3.1800        27.7607           0.0000          0.0000            65.00         2.00          0.1600            0.0000           0.0000       PFind                   None            0.00    0.00    None
  3.5600        24.7983           0.0000          0.0000            40.83         1.26          0.1600            0.0000           3.2667       PFind                   None            0.00    0.00    None
  3.8400        22.9907           0.0000          0.0000            47.50         1.46          0.0000            0.0000           3.8000       PFind                   None            0.00    0.00    None
  4.0000        22.0714           0.0000          0.0000            37.50         1.15          0.0200            0.0000           2.2500       PFind                   None            0.00    0.00    None
  4.6400        19.0284           0.0000          0.0000            37.50         1.15          0.1000            0.0000           0.7500       PFind                   None            0.00    0.00    None
  5.0200        17.5888           0.0000          0.0000            49.17         1.51          0.0800            0.0000           0.0000       PFind                   None            0.00    0.00    None
  6.4000        13.7990           0.0000          0.0000           415.83        12.79          0.1600            0.0000          66.5333       PFind                   None            0.00    0.00    None
  6.8000        12.9882           0.0000          0.0000            59.17         1.82          0.1200            0.0000           4.7333       PFind                   None            0.00    0.00    None
  6.9400        12.7265           0.0000          0.0000            50.83         1.56          0.0600            0.0000           2.0333       PFind                   None            0.00    0.00    None
  7.1600        12.3359           0.0000          0.0000            41.67         1.28          0.1200            0.0000           0.0000       PFind                   None            0.00    0.00    None
  9.1200         9.6887           0.0000          0.0000          1173.33        36.07          0.0800            0.0000         164.2667       PFind                   None            0.00    0.00    None
  9.4200         9.3808           0.0000          0.0000           144.17         4.43          0.1200            0.0000          14.4167       PFind                   None            0.00    0.00    None
  9.7200         9.0919           0.0000          0.0000            66.67         2.05          0.1200            0.0000           4.0000       PFind                   None            0.00    0.00    None
 10.7000         8.2613           0.0000          0.0000           216.67         6.66          0.0800            0.0000          17.3333       PFind                   None            0.00    0.00    None
 12.4400         7.1094           0.0000          0.0000           397.50        12.22          0.0800            0.0000          63.6000       PFind                   None            0.00    0.00    None
 12.7400         6.9427           0.0000          0.0000           611.67        18.81          0.0600            0.0000          73.4000       PFind                   None            0.00    0.00    None
 13.9800         6.3295           0.0000          0.0000            60.00         1.84          0.1400            0.0000           2.4000       PFind                   None            0.00    0.00    None
 14.1200         6.2671           0.0000          0.0000           178.33         5.48          0.1200            0.0000          10.7000       PFind                   None            0.00    0.00    None
 18.1000         4.8970           0.0000          0.0000           519.17        15.96          0.0000            0.0000          62.3000       PFind                   None            0.00    0.00    None
 18.7400         4.7312           0.0000          0.0000            74.17         2.28          0.1200            0.0000          11.8667       PFind                   None            0.00    0.00    None
 18.8200         4.7113           0.0000          0.0000           184.17         5.66          0.1600            0.0000          18.4167       PFind                   None            0.00    0.00    None
 19.0400         4.6573           0.0000          0.0000           245.83         7.56          0.0600            0.0000          34.4167       PFind                   None            0.00    0.00    None
 20.0200         4.4315           0.0000          0.0000            49.17         1.51          0.1600            0.0000           7.8667       PFind                   None            0.00    0.00    None
 20.1200         4.4097           0.0000          0.0000            56.67         1.74          0.1600            0.0000           6.8000       PFind                   None            0.00    0.00    None
 21.1000         4.2070           0.0000          0.0000           260.00         7.99          0.1400            0.0000          36.4000       PFind                   None            0.00    0.00    None
 22.2800         3.9868           0.0000          0.0000           255.83         7.87          0.1000            0.0000          25.5833       PFind                   None            0.00    0.00    None
 23.1000         3.8471           0.0000          0.0000            55.00         1.69          0.1000            0.0000           4.4000       PFind                   None            0.00    0.00    None
 23.7600         3.7417           0.0000          0.0000            64.17         1.97          0.0200            0.0000           7.7000       PFind                   None            0.00    0.00    None
 24.5200         3.6274           0.0000          0.0000            69.17         2.13          0.1000            0.0000           9.6833       PFind                   None            0.00    0.00    None
 24.9200         3.5701           0.0000          0.0000           333.33        10.25          0.0400            0.0000          46.6667       PFind                   None            0.00    0.00    None
 25.1000         3.5449           0.0000          0.0000           156.67         4.82          0.0400            0.0000           3.1333       PFind                   None            0.00    0.00    None
 25.4200         3.5010           0.0000          0.0000           580.83        17.86          0.0200            0.0000          81.3167       PFind                   None            0.00    0.00    None
 25.8000         3.4503           0.0000          0.0000           100.00         3.07          0.1200            0.0000          16.0000       PFind                   None            0.00    0.00    None
 26.8600         3.3165           0.0000          0.0000          3252.50       100.00          0.0400            0.0000         390.3000       PFind                   None            0.00    0.00    None
 27.1400         3.2829           0.0000          0.0000          1678.33        51.60          0.0000            0.0000         234.9667       PFind                   None            0.00    0.00    None
 27.6200         3.2269           0.0000          0.0000           112.50         3.46          0.1400            0.0000           6.7500       PFind                   None            0.00    0.00    None
 27.7200         3.2155           0.0000          0.0000            89.17         2.74          0.0200            0.0000          10.7000       PFind                   None            0.00    0.00    None
 28.1600         3.1663           0.0000          0.0000          2800.00        86.09          0.0200            0.0000         280.0000       PFind                   None            0.00    0.00    None
 28.9000         3.0869           0.0000          0.0000           138.33         4.25          0.1000            0.0000          16.6000       PFind                   None            0.00    0.00    None
 30.1200         2.9646           0.0000          0.0000            60.00         1.84          0.1600            0.0000           9.6000       PFind                   None            0.00    0.00    None
 30.3800         2.9398           0.0000          0.0000            48.33         1.49          0.1600            0.0000           5.8000       PFind                   None            0.00    0.00    None
 30.7200         2.9080           0.0000          0.0000            42.50         1.31          0.1000            0.0000           0.8500       PFind                   None            0.00    0.00    None
 31.1600         2.8679           0.0000          0.0000            53.33         1.64          0.1600            0.0000           8.5333       PFind                   None            0.00    0.00    None
 31.5400         2.8342           0.0000          0.0000            95.00         2.92          0.1400            0.0000          15.2000       PFind                   None            0.00    0.00    None
 31.8400         2.8082           0.0000          0.0000           105.00         3.23          0.0800            0.0000          14.7000       PFind                   None            0.00    0.00    None
 32.3400         2.7659           0.0000          0.0000            57.50         1.77          0.1400            0.0000           6.9000       PFind                   None            0.00    0.00    None
 34.7600         2.5787           0.0000          0.0000            95.83         2.95          0.1400            0.0000           1.9167       PFind                   None            0.00    0.00    None
 35.2400         2.5447           0.0000          0.0000            70.00         2.15          0.0600            0.0000           9.8000       PFind                   None            0.00    0.00    None
 35.8000         2.5061           0.0000          0.0000            63.33         1.95          0.1600            0.0000          10.1333       PFind                   None            0.00    0.00    None
 36.3600         2.4688           0.0000          0.0000           139.17         4.28          0.1600            0.0000          13.9167       PFind                   None            0.00    0.00    None
 36.8000         2.4403           0.0000          0.0000           110.83         3.41          0.1000            0.0000          17.7333       PFind                   None            0.00    0.00    None
 37.0400         2.4250           0.0000          0.0000            71.67         2.20          0.1400            0.0000           1.4333       PFind                   None            0.00    0.00    None
 37.7200         2.3829           0.0000          0.0000            45.83         1.41          0.1600            0.0000           7.3333       PFind                   None            0.00    0.00    None
 37.9000         2.3720           0.0000          0.0000            57.50         1.77          0.0200            0.0000           9.2000       PFind                   None            0.00    0.00    None
 39.7200         2.2674           0.0000          0.0000           279.17         8.58          0.0000            0.0000          16.7500       PFind                   None            0.00    0.00    None
 40.1800         2.2425           0.0000          0.0000           120.00         3.69          0.1400            0.0000           2.4000       PFind                   None            0.00    0.00    None
 40.5400         2.2234           0.0000          0.0000            53.33         1.64          0.1600            0.0000           8.5333       PFind                   None            0.00    0.00    None
 41.9800         2.1504           0.0000          0.0000            69.17         2.13          0.1200            0.0000           5.5333       PFind                   None            0.00    0.00    None
 42.6800         2.1167           0.0000          0.0000           117.50         3.61          0.1600            0.0000          18.8000       PFind                   None            0.00    0.00    None
 42.9800         2.1026           0.0000          0.0000            37.50         1.15          0.0600            0.0000           0.0000       PFind                   None            0.00    0.00    None
 45.0800         2.0095           0.0000          0.0000            43.33         1.33          0.1200            0.0000           6.9333       PFind                   None            0.00    0.00    None
 45.8200         1.9787           0.0000          0.0000           655.00        20.14          0.0800            0.0000         104.8000       PFind                   None            0.00    0.00    None
 47.3600         1.9179           0.0000          0.0000            43.33         1.33          0.0600            0.0000           1.7333       PFind                   None            0.00    0.00    None
 49.9400         1.8247           0.0000          0.0000            64.17         1.97          0.1200            0.0000           3.8500       PFind                   None            0.00    0.00    None
 50.3200         1.8118           0.0000          0.0000           145.83         4.48          0.0600            0.0000          17.5000       PFind                   None            0.00    0.00    None
 50.8000         1.7958           0.0000          0.0000            39.17         1.20          0.0600            0.0000           6.2667       PFind                   None            0.00    0.00    None
 51.4000         1.7762           0.0000          0.0000            85.00         2.61          0.1400            0.0000           8.5000       PFind                   None            0.00    0.00    None
 55.0600         1.6665           0.0000          0.0000            79.17         2.43          0.1600            0.0000           9.5000       PFind                   None            0.00    0.00    None
 56.0400         1.6397           0.0000          0.0000            43.33         1.33          0.0400            0.0000           6.9333       PFind                   None            0.00    0.00    None
 60.1800         1.5364           0.0000          0.0000           113.33         3.48          0.1200            0.0000          15.8667       PFind                   None            0.00    0.00    None
 60.8200         1.5217           0.0000          0.0000            54.17         1.67          0.1600            0.0000           2.1667       PFind                   None            0.00    0.00    None
 60.9600         1.5186           0.0000          0.0000            45.00         1.38          0.1600            0.0000           2.7000       PFind                   None            0.00    0.00    None
 61.2000         1.5132           0.0000          0.0000            53.33         1.64          0.0200            0.0000           3.2000       PFind                   None            0.00    0.00    None
 61.8400         1.4991           0.0000          0.0000            40.00         1.23          0.1400            0.0000           4.0000       PFind                   None            0.00    0.00    None
 64.4600         1.4443           0.0000          0.0000            39.17         1.20          0.0400            0.0000           0.7833       PFind                   None            0.00    0.00    None