File: Generating XRD fingerprints/INPUT/Detrital data/11_A_pf_FT.txt
Filename:
	C:\Program Files\Thermo Electron\WinXRD\Datafiles\FIEN2\FIEN\11_A_FT.pk

File Created:
	February 25, 2021 - 10:40 AM

Specimen Id:
	11A FT

Specimen Name:

Specimen Description:

Comment:
Scan Type: 2Theta Scan
Start Angle: 1 deg.
Stop Angle: 65 deg.
Num Points: 3201
Step Size: 0.02 deg.
Scan Rate: 1.000000
Scan Mode: Continuous
Wavelength: 1.540562
\Kalpha1: 1.540562	\Kalpha2: 1.544390	\Kbeta: 1.392218

Optics:
		Detector:
			 Type: Fixed Slits
		Tube:
			 Type: Fixed Slits

Datas:
Peaks:

Position        Dspace          ESD(P)          Corr.Fact       Intensity       Rel.Int.        FWHM(L)         ESD(L)          Area            Source                  Curve           Strain  CSize   CSize_Source
[deg]           [A]             [deg]           [deg]           [CPS]           [CPS]           [deg]           [deg]           [deg]           [--]                    [--]            [--]    [--]    [--]
 32.1000         2.7861           0.0000          0.0000            25.83         0.53          0.1000            0.0000           1.5500       PFind                   None            0.00    0.00    None
 13.2200         6.6917           0.0000          0.0000            25.83         0.53          0.1000            0.0000           0.5167       PFind                   None            0.00    0.00    None
 28.9200         3.0848           0.0000          0.0000            26.67         0.54          0.1600            0.0000           1.6000       PFind                   None            0.00    0.00    None
 58.7800         1.5696           0.0000          0.0000            26.67         0.54          0.0400            0.0000           0.0000       PFind                   None            0.00    0.00    None
 61.8400         1.4991           0.0000          0.0000            26.67         0.54          0.0800            0.0000           0.5333       PFind                   None            0.00    0.00    None
 61.9200         1.4973           0.0000          0.0000            26.67         0.54          0.1200            0.0000           3.2000       PFind                   None            0.00    0.00    None
 50.8000         1.7958           0.0000          0.0000            27.50         0.56          0.0800            0.0000           1.1000       PFind                   None            0.00    0.00    None
 34.8800         2.5701           0.0000          0.0000            27.50         0.56          0.0200            0.0000           2.7500       PFind                   None            0.00    0.00    None
 62.1400         1.4925           0.0000          0.0000            27.50         0.56          0.1600            0.0000           2.2000       PFind                   None            0.00    0.00    None
 34.7000         2.5830           0.0000          0.0000            28.33         0.58          0.0600            0.0000           1.1333       PFind                   None            0.00    0.00    None
 52.8200         1.7318           0.0000          0.0000            28.33         0.58          0.1200            0.0000           1.7000       PFind                   None            0.00    0.00    None
 13.5400         6.5342           0.0000          0.0000            29.17         0.59          0.1000            0.0000           0.5833       PFind                   None            0.00    0.00    None
 46.9600         1.9333           0.0000          0.0000            29.17         0.59          0.1600            0.0000           1.1667       PFind                   None            0.00    0.00    None
 50.6200         1.8018           0.0000          0.0000            29.17         0.59          0.0000            0.0000           4.6667       PFind                   None            0.00    0.00    None
 61.5600         1.5052           0.0000          0.0000            29.17         0.59          0.1200            0.0000           2.3333       PFind                   None            0.00    0.00    None
  9.6600         9.1483           0.0000          0.0000            30.00         0.61          0.1200            0.0000           2.4000       PFind                   None            0.00    0.00    None
 10.4400         8.4665           0.0000          0.0000            30.00         0.61          0.1000            0.0000           0.6000       PFind                   None            0.00    0.00    None
  9.8000         9.0179           0.0000          0.0000            30.00         0.61          0.1400            0.0000           0.6000       PFind                   None            0.00    0.00    None
 10.9200         8.0954           0.0000          0.0000            30.00         0.61          0.1200            0.0000           0.0000       PFind                   None            0.00    0.00    None
 63.6200         1.4613           0.0000          0.0000            30.00         0.61          0.0800            0.0000           1.2000       PFind                   None            0.00    0.00    None
 12.8600         6.8782           0.0000          0.0000            30.83         0.63          0.1600            0.0000           1.8500       PFind                   None            0.00    0.00    None
 17.3600         5.1040           0.0000          0.0000            30.83         0.63          0.0600            0.0000           1.2333       PFind                   None            0.00    0.00    None
 48.7400         1.8668           0.0000          0.0000            30.83         0.63          0.1000            0.0000           4.9333       PFind                   None            0.00    0.00    None
 52.6800         1.7361           0.0000          0.0000            30.83         0.63          0.0800            0.0000           3.0833       PFind                   None            0.00    0.00    None
  9.9800         8.8557           0.0000          0.0000            31.67         0.65          0.0200            0.0000           1.9000       PFind                   None            0.00    0.00    None
  7.1800        12.3016           0.0000          0.0000            32.50         0.66          0.0400            0.0000           3.2500       PFind                   None            0.00    0.00    None
 11.7000         7.5574           0.0000          0.0000            32.50         0.66          0.0400            0.0000           0.6500       PFind                   None            0.00    0.00    None
 43.1200         2.0961           0.0000          0.0000            32.50         0.66          0.1600            0.0000           0.0000       PFind                   None            0.00    0.00    None
 51.4200         1.7756           0.0000          0.0000            32.50         0.66          0.1200            0.0000           0.6500       PFind                   None            0.00    0.00    None
 60.9800         1.5181           0.0000          0.0000            33.33         0.68          0.0600            0.0000           5.3333       PFind                   None            0.00    0.00    None
 32.2800         2.7709           0.0000          0.0000            33.33         0.68          0.1600            0.0000           2.6667       PFind                   None            0.00    0.00    None
 51.2600         1.7808           0.0000          0.0000            34.17         0.70          0.1200            0.0000           1.3667       PFind                   None            0.00    0.00    None
  7.6200        11.5922           0.0000          0.0000            34.17         0.70          0.1600            0.0000           1.3667       PFind                   None            0.00    0.00    None
 10.3400         8.5481           0.0000          0.0000            34.17         0.70          0.0600            0.0000           2.7333       PFind                   None            0.00    0.00    None
  7.9000        11.1820           0.0000          0.0000            35.83         0.73          0.0400            0.0000           2.1500       PFind                   None            0.00    0.00    None
 36.0400         2.4900           0.0000          0.0000            35.83         0.73          0.0600            0.0000           2.8667       PFind                   None            0.00    0.00    None
 37.7000         2.3841           0.0000          0.0000            35.83         0.73          0.0400            0.0000           2.1500       PFind                   None            0.00    0.00    None
 14.9400         5.9249           0.0000          0.0000            36.67         0.75          0.0800            0.0000           0.0000       PFind                   None            0.00    0.00    None
 64.3400         1.4467           0.0000          0.0000            36.67         0.75          0.0400            0.0000           3.6667       PFind                   None            0.00    0.00    None
 55.5600         1.6527           0.0000          0.0000            37.50         0.76          0.0200            0.0000           5.2500       PFind                   None            0.00    0.00    None
 20.0000         4.4359           0.0000          0.0000            38.33         0.78          0.0200            0.0000           6.1333       PFind                   None            0.00    0.00    None
  7.3200        12.0666           0.0000          0.0000            39.17         0.80          0.0000            0.0000           3.1333       PFind                   None            0.00    0.00    None
 22.7000         3.9140           0.0000          0.0000            39.17         0.80          0.0800            0.0000           2.3500       PFind                   None            0.00    0.00    None
 52.5400         1.7403           0.0000          0.0000            39.17         0.80          0.1600            0.0000           3.1333       PFind                   None            0.00    0.00    None
  7.0000        12.6175           0.0000          0.0000            40.00         0.82          0.1200            0.0000           1.6000       PFind                   None            0.00    0.00    None
  8.0800        10.9333           0.0000          0.0000            40.00         0.82          0.1200            0.0000           0.0000       PFind                   None            0.00    0.00    None
 43.9200         2.0598           0.0000          0.0000            40.83         0.83          0.0400            0.0000           0.8167       PFind                   None            0.00    0.00    None
 59.3400         1.5561           0.0000          0.0000            41.67         0.85          0.1200            0.0000           6.6667       PFind                   None            0.00    0.00    None
  9.5000         9.3020           0.0000          0.0000            41.67         0.85          0.0600            0.0000           0.8333       PFind                   None            0.00    0.00    None
 60.4200         1.5309           0.0000          0.0000            42.50         0.87          0.0600            0.0000           2.5500       PFind                   None            0.00    0.00    None
 59.5000         1.5523           0.0000          0.0000            43.33         0.88          0.0800            0.0000           4.3333       PFind                   None            0.00    0.00    None
  6.6800        13.2212           0.0000          0.0000            44.17         0.90          0.1200            0.0000           3.5333       PFind                   None            0.00    0.00    None
 56.1600         1.6364           0.0000          0.0000            44.17         0.90          0.0800            0.0000           5.3000       PFind                   None            0.00    0.00    None
 31.0000         2.8824           0.0000          0.0000            45.00         0.92          0.1200            0.0000           1.8000       PFind                   None            0.00    0.00    None
  5.2600        16.7868           0.0000          0.0000            45.83         0.93          0.1200            0.0000           1.8333       PFind                   None            0.00    0.00    None
 31.7200         2.8186           0.0000          0.0000            45.83         0.93          0.1000            0.0000           7.3333       PFind                   None            0.00    0.00    None
  8.3200        10.6184           0.0000          0.0000            48.33         0.99          0.0400            0.0000           7.7333       PFind                   None            0.00    0.00    None
 28.7200         3.1058           0.0000          0.0000            48.33         0.99          0.1200            0.0000           5.8000       PFind                   None            0.00    0.00    None
  4.5200        19.5333           0.0000          0.0000            49.17         1.00          0.0800            0.0000           1.9667       PFind                   None            0.00    0.00    None
 29.9000         2.9859           0.0000          0.0000            49.17         1.00          0.0600            0.0000           2.9500       PFind                   None            0.00    0.00    None
 64.1800         1.4499           0.0000          0.0000            49.17         1.00          0.1600            0.0000           4.9167       PFind                   None            0.00    0.00    None
  6.8800        12.8373           0.0000          0.0000            50.00         1.02          0.1200            0.0000           0.0000       PFind                   None            0.00    0.00    None
 43.3400         2.0860           0.0000          0.0000            50.00         1.02          0.0400            0.0000           1.0000       PFind                   None            0.00    0.00    None
 55.3800         1.6576           0.0000          0.0000            50.00         1.02          0.0800            0.0000           5.0000       PFind                   None            0.00    0.00    None
  5.0600        17.4499           0.0000          0.0000            51.67         1.05          0.1000            0.0000           2.0667       PFind                   None            0.00    0.00    None
  6.2200        14.1979           0.0000          0.0000            53.33         1.09          0.1400            0.0000           8.5333       PFind                   None            0.00    0.00    None
  4.6800        18.8659           0.0000          0.0000            53.33         1.09          0.0600            0.0000           1.0667       PFind                   None            0.00    0.00    None
 37.9200         2.3708           0.0000          0.0000            55.83         1.14          0.0600            0.0000           6.7000       PFind                   None            0.00    0.00    None
 49.9400         1.8247           0.0000          0.0000            55.83         1.14          0.1200            0.0000           8.9333       PFind                   None            0.00    0.00    None
  4.1400        21.3253           0.0000          0.0000            56.67         1.16          0.1400            0.0000           5.6667       PFind                   None            0.00    0.00    None
  4.8400        18.2426           0.0000          0.0000            56.67         1.16          0.1400            0.0000           0.0000       PFind                   None            0.00    0.00    None
 12.0000         7.3691           0.0000          0.0000            56.67         1.16          0.0800            0.0000           9.0667       PFind                   None            0.00    0.00    None
 63.9400         1.4548           0.0000          0.0000            58.33         1.19          0.1200            0.0000           9.3333       PFind                   None            0.00    0.00    None
 25.8800         3.4398           0.0000          0.0000            60.00         1.22          0.1000            0.0000           1.2000       PFind                   None            0.00    0.00    None
 41.0800         2.1954           0.0000          0.0000            63.33         1.29          0.0200            0.0000           7.6000       PFind                   None            0.00    0.00    None
 53.3800         1.7149           0.0000          0.0000            65.00         1.32          0.1600            0.0000          10.4000       PFind                   None            0.00    0.00    None
  3.5600        24.7983           0.0000          0.0000            68.33         1.39          0.1400            0.0000           4.1000       PFind                   None            0.00    0.00    None
 35.1400         2.5517           0.0000          0.0000            69.17         1.41          0.1400            0.0000           8.3000       PFind                   None            0.00    0.00    None
 49.4200         1.8427           0.0000          0.0000            70.00         1.43          0.1200            0.0000           4.2000       PFind                   None            0.00    0.00    None
  3.6600        24.1210           0.0000          0.0000            71.67         1.46          0.0800            0.0000           8.6000       PFind                   None            0.00    0.00    None
 54.4800         1.6829           0.0000          0.0000            71.67         1.46          0.1400            0.0000           5.7333       PFind                   None            0.00    0.00    None
  3.4200        25.8131           0.0000          0.0000            73.33         1.49          0.0200            0.0000           2.9333       PFind                   None            0.00    0.00    None
 18.8400         4.7063           0.0000          0.0000            74.17         1.51          0.0600            0.0000          11.8667       PFind                   None            0.00    0.00    None
 18.9600         4.6768           0.0000          0.0000            75.00         1.53          0.0600            0.0000          10.5000       PFind                   None            0.00    0.00    None
 30.6600         2.9136           0.0000          0.0000            76.67         1.56          0.0800            0.0000           6.1333       PFind                   None            0.00    0.00    None
 29.6400         3.0115           0.0000          0.0000            77.50         1.58          0.1600            0.0000          10.8500       PFind                   None            0.00    0.00    None
 40.1200         2.2457           0.0000          0.0000            80.83         1.65          0.1600            0.0000           3.2333       PFind                   None            0.00    0.00    None
 32.5000         2.7527           0.0000          0.0000            80.83         1.65          0.1400            0.0000           9.7000       PFind                   None            0.00    0.00    None
 56.0000         1.6407           0.0000          0.0000            82.50         1.68          0.1200            0.0000           9.9000       PFind                   None            0.00    0.00    None
 44.7200         2.0248           0.0000          0.0000            83.33         1.70          0.0800            0.0000           6.6667       PFind                   None            0.00    0.00    None
  3.9800        22.1823           0.0000          0.0000            87.50         1.78          0.0400            0.0000           3.5000       PFind                   None            0.00    0.00    None
  4.3600        20.2498           0.0000          0.0000            90.00         1.83          0.0000            0.0000           0.0000       PFind                   None            0.00    0.00    None
 10.6600         8.2922           0.0000          0.0000            90.00         1.83          0.1200            0.0000           7.2000       PFind                   None            0.00    0.00    None
  2.9200        30.2319           0.0000          0.0000            92.50         1.89          0.0400            0.0000           7.4000       PFind                   None            0.00    0.00    None
 14.1200         6.2671           0.0000          0.0000            93.33         1.90          0.0200            0.0000          11.2000       PFind                   None            0.00    0.00    None
 40.4200         2.2297           0.0000          0.0000            93.33         1.90          0.0200            0.0000          11.2000       PFind                   None            0.00    0.00    None
  3.0400        29.0388           0.0000          0.0000            96.67         1.97          0.0600            0.0000           7.7333       PFind                   None            0.00    0.00    None
 13.8800         6.3749           0.0000          0.0000            97.50         1.99          0.1600            0.0000           3.9000       PFind                   None            0.00    0.00    None
  5.9200        14.9167           0.0000          0.0000           100.83         2.06          0.1600            0.0000          16.1333       PFind                   None            0.00    0.00    None
  6.3200        13.9735           0.0000          0.0000           100.83         2.06          0.0200            0.0000           8.0667       PFind                   None            0.00    0.00    None
 35.6800         2.5143           0.0000          0.0000           105.00         2.14          0.0000            0.0000          12.6000       PFind                   None            0.00    0.00    None
 24.3800         3.6480           0.0000          0.0000           105.83         2.16          0.0800            0.0000          12.7000       PFind                   None            0.00    0.00    None
 25.6800         3.4662           0.0000          0.0000           106.67         2.17          0.0200            0.0000          17.0667       PFind                   None            0.00    0.00    None
 36.2600         2.4754           0.0000          0.0000           115.00         2.34          0.0800            0.0000          13.8000       PFind                   None            0.00    0.00    None
 23.2000         3.8308           0.0000          0.0000           123.33         2.51          0.0600            0.0000          17.2667       PFind                   None            0.00    0.00    None
 44.6000         2.0300           0.0000          0.0000           125.83         2.56          0.0200            0.0000           5.0333       PFind                   None            0.00    0.00    None
 18.6000         4.7665           0.0000          0.0000           140.83         2.87          0.0800            0.0000          16.9000       PFind                   None            0.00    0.00    None
 23.0800         3.8504           0.0000          0.0000           146.67         2.99          0.0200            0.0000           2.9333       PFind                   None            0.00    0.00    None
 31.4000         2.8466           0.0000          0.0000           150.00         3.06          0.0600            0.0000          18.0000       PFind                   None            0.00    0.00    None
 23.7000         3.7511           0.0000          0.0000           152.50         3.11          0.0400            0.0000          12.2000       PFind                   None            0.00    0.00    None
 47.3200         1.9194           0.0000          0.0000           154.17         3.14          0.1200            0.0000          18.5000       PFind                   None            0.00    0.00    None
 41.9400         2.1523           0.0000          0.0000           160.00         3.26          0.1600            0.0000          25.6000       PFind                   None            0.00    0.00    None
  9.3600         9.4408           0.0000          0.0000           161.67         3.30          0.0000            0.0000           9.7000       PFind                   None            0.00    0.00    None
 55.0000         1.6682           0.0000          0.0000           165.00         3.36          0.0600            0.0000          19.8000       PFind                   None            0.00    0.00    None
 25.3400         3.5119           0.0000          0.0000           190.00         3.87          0.0400            0.0000          26.6000       PFind                   None            0.00    0.00    None
  5.7600        15.3307           0.0000          0.0000           199.17         4.06          0.0800            0.0000          19.9167       PFind                   None            0.00    0.00    None
 24.7600         3.5928           0.0000          0.0000           205.00         4.18          0.1000            0.0000          28.7000       PFind                   None            0.00    0.00    None
 48.4400         1.8776           0.0000          0.0000           234.17         4.77          0.0400            0.0000          14.0500       PFind                   None            0.00    0.00    None
  8.5400        10.3454           0.0000          0.0000           250.83         5.11          0.0000            0.0000          30.1000       PFind                   None            0.00    0.00    None
 60.0600         1.5392           0.0000          0.0000           298.33         6.08          0.0800            0.0000          35.8000       PFind                   None            0.00    0.00    None
 12.3600         7.1553           0.0000          0.0000           302.50         6.17          0.0800            0.0000          48.4000       PFind                   None            0.00    0.00    None
 18.0000         4.9240           0.0000          0.0000           321.67         6.56          0.1600            0.0000          25.7333       PFind                   None            0.00    0.00    None
 30.3000         2.9474           0.0000          0.0000           322.50         6.57          0.1600            0.0000          32.2500       PFind                   None            0.00    0.00    None
  9.0600         9.7527           0.0000          0.0000           384.17         7.83          0.1000            0.0000          15.3667       PFind                   None            0.00    0.00    None
 50.2600         1.8138           0.0000          0.0000           411.67         8.39          0.0400            0.0000          49.4000       PFind                   None            0.00    0.00    None
 27.6800         3.2201           0.0000          0.0000           423.33         8.63          0.0400            0.0000          33.8667       PFind                   None            0.00    0.00    None
 42.6000         2.1205           0.0000          0.0000           442.50         9.02          0.0000            0.0000          35.4000       PFind                   None            0.00    0.00    None
 36.6800         2.4480           0.0000          0.0000           467.50         9.53          0.0200            0.0000          37.4000       PFind                   None            0.00    0.00    None
 39.6200         2.2729           0.0000          0.0000           500.83        10.21          0.0400            0.0000          30.0500       PFind                   None            0.00    0.00    None
 27.9800         3.1862           0.0000          0.0000           522.50        10.65          0.0000            0.0000          73.1500       PFind                   None            0.00    0.00    None
 28.2600         3.1553           0.0000          0.0000           650.83        13.27          0.1000            0.0000          91.1167       PFind                   None            0.00    0.00    None
 22.1800         4.0046           0.0000          0.0000           696.67        14.20          0.0400            0.0000          41.8000       PFind                   None            0.00    0.00    None
 45.7400         1.9820           0.0000          0.0000           740.83        15.10          0.1200            0.0000          44.4500       PFind                   None            0.00    0.00    None
 45.0800         2.0095           0.0000          0.0000           963.33        19.64          0.0600            0.0000          38.5333       PFind                   None            0.00    0.00    None
 27.0400         3.2948           0.0000          0.0000          1204.17        24.55          0.0400            0.0000         144.5000       PFind                   None            0.00    0.00    None
 21.0000         4.2268           0.0000          0.0000          1494.17        30.46          0.0800            0.0000         119.5333       PFind                   None            0.00    0.00    None
 26.7800         3.3262           0.0000          0.0000          4905.83       100.00          0.0800            0.0000         490.5833       PFind                   None            0.00    0.00    None