File: Generating XRD fingerprints/INPUT/Detrital data/12_2_SEPT_PF_FILTER.txt
Filename:
	H:\12_2_SEPT_FILTER.pk

File Created:
	April 16, 2019 - 04:33 PM

Specimen Id:
	12.1 SEPT FILTER

Specimen Name:

Specimen Description:

Comment:
Scan Type: 2Theta Scan
Start Angle: 2 deg.
Stop Angle: 65 deg.
Num Points: 3151
Step Size: 0.02 deg.
Scan Rate: 1.000000
Scan Mode: Continuous
Wavelength: 1.540562
\Kalpha1: 1.540562	\Kalpha2: 1.544390	\Kbeta: 1.392218

Optics:
		Detector:
			 Type: Fixed Slits
		Tube:
			 Type: Fixed Slits

Datas:
Peaks:

Position        Dspace          ESD(P)          Corr.Fact       Intensity       Rel.Int.        FWHM(L)         ESD(L)          Area            Source                  Curve           Strain  CSize   CSize_Source
[deg]           [A]             [deg]           [deg]           [CPS]           [CPS]           [deg]           [deg]           [deg]           [--]                    [--]            [--]    [--]    [--]
  3.8800        22.7538           0.0000          0.0000            55.83         3.98          0.0600            0.0000           3.3500       PFind                   None            0.00    0.00    None
  4.0200        21.9616           0.0000          0.0000            49.17         3.51          0.1600            0.0000           2.9500       PFind                   None            0.00    0.00    None
  4.3200        20.4372           0.0000          0.0000            50.83         3.63          0.1600            0.0000           1.0167       PFind                   None            0.00    0.00    None
  4.6200        19.1107           0.0000          0.0000            36.67         2.62          0.1200            0.0000           1.4667       PFind                   None            0.00    0.00    None
  4.6800        18.8659           0.0000          0.0000            34.17         2.44          0.0400            0.0000           0.6833       PFind                   None            0.00    0.00    None
  4.8400        18.2426           0.0000          0.0000            39.17         2.79          0.1200            0.0000           0.7833       PFind                   None            0.00    0.00    None
  5.5200        15.9967           0.0000          0.0000            37.50         2.68          0.0600            0.0000           0.0000       PFind                   None            0.00    0.00    None
  6.2400        14.1525           0.0000          0.0000           120.83         8.62          0.1200            0.0000          16.9167       PFind                   None            0.00    0.00    None
  6.7400        13.1037           0.0000          0.0000            35.83         2.56          0.0800            0.0000           0.7167       PFind                   None            0.00    0.00    None
  7.5200        11.7462           0.0000          0.0000            35.00         2.50          0.1000            0.0000           1.4000       PFind                   None            0.00    0.00    None
  8.1000        10.9063           0.0000          0.0000            40.00         2.85          0.0400            0.0000           1.6000       PFind                   None            0.00    0.00    None
  8.8800         9.9500           0.0000          0.0000           514.17        36.68          0.0400            0.0000          51.4167       PFind                   None            0.00    0.00    None
  9.1600         9.6465           0.0000          0.0000            51.67         3.69          0.1200            0.0000           8.2667       PFind                   None            0.00    0.00    None
  9.4200         9.3808           0.0000          0.0000            45.83         3.27          0.0400            0.0000           4.5833       PFind                   None            0.00    0.00    None
 10.5000         8.4182           0.0000          0.0000            80.00         5.71          0.1400            0.0000          11.2000       PFind                   None            0.00    0.00    None
 12.2000         7.2487           0.0000          0.0000           715.00        51.01          0.0200            0.0000          71.5000       PFind                   None            0.00    0.00    None
 12.4800         7.0867           0.0000          0.0000           375.83        26.81          0.0000            0.0000          60.1333       PFind                   None            0.00    0.00    None
 13.8600         6.3841           0.0000          0.0000            55.83         3.98          0.1400            0.0000           2.2333       PFind                   None            0.00    0.00    None
 17.8200         4.9733           0.0000          0.0000           288.33        20.57          0.0400            0.0000          34.6000       PFind                   None            0.00    0.00    None
 18.5400         4.7818           0.0000          0.0000            67.50         4.82          0.1600            0.0000           8.1000       PFind                   None            0.00    0.00    None
 18.8000         4.7162           0.0000          0.0000           182.50        13.02          0.1400            0.0000          25.5500       PFind                   None            0.00    0.00    None
 19.9200         4.4535           0.0000          0.0000            44.17         3.15          0.0800            0.0000           7.0667       PFind                   None            0.00    0.00    None
 20.8800         4.2509           0.0000          0.0000           350.83        25.03          0.1400            0.0000          35.0833       PFind                   None            0.00    0.00    None
 22.0600         4.0261           0.0000          0.0000           240.83        17.18          0.1000            0.0000          24.0833       PFind                   None            0.00    0.00    None
 23.0400         3.8570           0.0000          0.0000            65.00         4.64          0.1400            0.0000           7.8000       PFind                   None            0.00    0.00    None
 23.5600         3.7730           0.0000          0.0000           200.83        14.33          0.1000            0.0000          20.0833       PFind                   None            0.00    0.00    None
 24.3000         3.6598           0.0000          0.0000            91.67         6.54          0.1200            0.0000          11.0000       PFind                   None            0.00    0.00    None
 24.5800         3.6187           0.0000          0.0000           469.17        33.47          0.0200            0.0000          56.3000       PFind                   None            0.00    0.00    None
 25.1800         3.5338           0.0000          0.0000           322.50        23.01          0.0200            0.0000          38.7000       PFind                   None            0.00    0.00    None
 25.5800         3.4795           0.0000          0.0000           120.00         8.56          0.1400            0.0000          19.2000       PFind                   None            0.00    0.00    None
 25.6200         3.4741           0.0000          0.0000           127.50         9.10          0.1200            0.0000          17.8500       PFind                   None            0.00    0.00    None
 26.6400         3.3434           0.0000          0.0000          1401.67       100.00          0.0600            0.0000         168.2000       PFind                   None            0.00    0.00    None
 26.8800         3.3141           0.0000          0.0000           747.50        53.33          0.0600            0.0000         104.6500       PFind                   None            0.00    0.00    None
 27.5200         3.2384           0.0000          0.0000           154.17        11.00          0.0400            0.0000          18.5000       PFind                   None            0.00    0.00    None
 27.9200         3.1929           0.0000          0.0000           395.00        28.18          0.0200            0.0000          63.2000       PFind                   None            0.00    0.00    None
 28.3000         3.1509           0.0000          0.0000           217.50        15.52          0.1600            0.0000          26.1000       PFind                   None            0.00    0.00    None
 28.6400         3.1143           0.0000          0.0000           173.33        12.37          0.1000            0.0000          24.2667       PFind                   None            0.00    0.00    None
 29.8800         2.9878           0.0000          0.0000           110.00         7.85          0.1000            0.0000          15.4000       PFind                   None            0.00    0.00    None
 30.2000         2.9569           0.0000          0.0000            56.67         4.04          0.1200            0.0000           7.9333       PFind                   None            0.00    0.00    None
 30.5000         2.9285           0.0000          0.0000            77.50         5.53          0.1200            0.0000          10.8500       PFind                   None            0.00    0.00    None
 30.8400         2.8970           0.0000          0.0000            94.17         6.72          0.1200            0.0000          11.3000       PFind                   None            0.00    0.00    None
 31.2400         2.8608           0.0000          0.0000           117.50         8.38          0.1000            0.0000          16.4500       PFind                   None            0.00    0.00    None
 31.6400         2.8255           0.0000          0.0000            56.67         4.04          0.1400            0.0000           6.8000       PFind                   None            0.00    0.00    None
 32.1000         2.7861           0.0000          0.0000            60.83         4.34          0.1400            0.0000           8.5167       PFind                   None            0.00    0.00    None
 33.0400         2.7089           0.0000          0.0000            37.50         2.68          0.0400            0.0000           2.2500       PFind                   None            0.00    0.00    None
 34.5800         2.5917           0.0000          0.0000            55.00         3.92          0.1000            0.0000           5.5000       PFind                   None            0.00    0.00    None
 35.0200         2.5602           0.0000          0.0000            71.67         5.11          0.1200            0.0000          11.4667       PFind                   None            0.00    0.00    None
 35.6400         2.5170           0.0000          0.0000           119.17         8.50          0.1600            0.0000           9.5333       PFind                   None            0.00    0.00    None
 36.0600         2.4887           0.0000          0.0000            62.50         4.46          0.1400            0.0000           7.5000       PFind                   None            0.00    0.00    None
 36.5600         2.4558           0.0000          0.0000           110.83         7.91          0.1200            0.0000          11.0833       PFind                   None            0.00    0.00    None
 37.4600         2.3988           0.0000          0.0000            34.17         2.44          0.0800            0.0000           5.4667       PFind                   None            0.00    0.00    None
 37.6600         2.3865           0.0000          0.0000            50.83         3.63          0.1000            0.0000           8.1333       PFind                   None            0.00    0.00    None
 38.1000         2.3600           0.0000          0.0000            38.33         2.73          0.0600            0.0000           3.0667       PFind                   None            0.00    0.00    None
 39.4800         2.2806           0.0000          0.0000            75.00         5.35          0.1400            0.0000           9.0000       PFind                   None            0.00    0.00    None
 40.2800         2.2371           0.0000          0.0000            54.17         3.86          0.1600            0.0000           6.5000       PFind                   None            0.00    0.00    None
 41.7600         2.1612           0.0000          0.0000            34.17         2.44          0.0400            0.0000           3.4167       PFind                   None            0.00    0.00    None
 41.8600         2.1563           0.0000          0.0000            46.67         3.33          0.1200            0.0000           1.8667       PFind                   None            0.00    0.00    None
 42.4600         2.1272           0.0000          0.0000           104.17         7.43          0.1200            0.0000          14.5833       PFind                   None            0.00    0.00    None
 44.2800         2.0439           0.0000          0.0000            39.17         2.79          0.1000            0.0000           3.1333       PFind                   None            0.00    0.00    None
 44.9600         2.0145           0.0000          0.0000            36.67         2.62          0.0800            0.0000           5.1333       PFind                   None            0.00    0.00    None
 45.5800         1.9886           0.0000          0.0000           267.50        19.08          0.0400            0.0000          42.8000       PFind                   None            0.00    0.00    None
 46.2800         1.9601           0.0000          0.0000            34.17         2.44          0.0600            0.0000           0.0000       PFind                   None            0.00    0.00    None
 47.1600         1.9256           0.0000          0.0000            44.17         3.15          0.1400            0.0000           2.6500       PFind                   None            0.00    0.00    None
 48.2000         1.8864           0.0000          0.0000            45.83         3.27          0.1000            0.0000           7.3333       PFind                   None            0.00    0.00    None
 49.7800         1.8302           0.0000          0.0000            38.33         2.73          0.0800            0.0000           2.3000       PFind                   None            0.00    0.00    None
 49.9000         1.8261           0.0000          0.0000            40.83         2.91          0.0600            0.0000           1.6333       PFind                   None            0.00    0.00    None
 50.1400         1.8179           0.0000          0.0000           168.33        12.01          0.1600            0.0000          16.8333       PFind                   None            0.00    0.00    None
 50.6000         1.8024           0.0000          0.0000            36.67         2.62          0.0800            0.0000           4.4000       PFind                   None            0.00    0.00    None
 51.1000         1.7860           0.0000          0.0000            45.83         3.27          0.1200            0.0000           3.6667       PFind                   None            0.00    0.00    None
 51.2800         1.7801           0.0000          0.0000            51.67         3.69          0.0800            0.0000           3.1000       PFind                   None            0.00    0.00    None
 52.1400         1.7528           0.0000          0.0000            42.50         3.03          0.1600            0.0000           1.7000       PFind                   None            0.00    0.00    None
 52.4800         1.7422           0.0000          0.0000            63.33         4.52          0.1400            0.0000           3.8000       PFind                   None            0.00    0.00    None
 53.2600         1.7185           0.0000          0.0000            42.50         3.03          0.1400            0.0000           3.4000       PFind                   None            0.00    0.00    None
 54.8800         1.6715           0.0000          0.0000            57.50         4.10          0.1200            0.0000           4.6000       PFind                   None            0.00    0.00    None
 55.3000         1.6598           0.0000          0.0000            41.67         2.97          0.0600            0.0000           5.0000       PFind                   None            0.00    0.00    None
 55.8600         1.6445           0.0000          0.0000            48.33         3.45          0.0800            0.0000           7.7333       PFind                   None            0.00    0.00    None
 58.7600         1.5701           0.0000          0.0000            34.17         2.44          0.1000            0.0000           2.7333       PFind                   None            0.00    0.00    None
 59.9600         1.5415           0.0000          0.0000           112.50         8.03          0.1000            0.0000          11.2500       PFind                   None            0.00    0.00    None
 60.1200         1.5378           0.0000          0.0000            88.33         6.30          0.1600            0.0000           8.8333       PFind                   None            0.00    0.00    None
 60.7600         1.5231           0.0000          0.0000            41.67         2.97          0.0000            0.0000           2.5000       PFind                   None            0.00    0.00    None
 64.2200         1.4491           0.0000          0.0000            40.83         2.91          0.1600            0.0000           1.6333       PFind                   None            0.00    0.00    None
 64.4000         1.4455           0.0000          0.0000            66.67         4.76          0.1200            0.0000           5.3333       PFind                   None            0.00    0.00    None
 64.5600         1.4423           0.0000          0.0000            35.83         2.56          0.1600            0.0000           1.4333       PFind                   None            0.00    0.00    None