File: Generating XRD fingerprints/INPUT/Detrital data/12_2.txt
Position	Dspace	ESD(P)	Corr.Fact	Intensity	Rel.Int.	FWHM(L)	ESD(L)	Area
[deg]	[A]	[deg]	[deg]	[CPS]	[CPS]	[deg]	[deg]	[deg]
2.6800	32.9387	0.0000	0.0000	75.83	2.80	0.0400	0.0000	7.5833
2.8800	30.6517	0.0000	0.0000	60.83	2.25	0.0200	0.0000	3.6500
3.0200	29.2311	0.0000	0.0000	79.17	2.92	0.0800	0.0000	3.1667
3.1800	27.7607	0.0000	0.0000	60.83	2.25	0.0000	0.0000	6.0833
3.4400	25.6631	0.0000	0.0000	59.17	2.19	0.1200	0.0000	4.7333
3.7000	23.8603	0.0000	0.0000	56.67	2.09	0.0200	0.0000	1.1333
3.9200	22.5217	0.0000	0.0000	38.33	1.42	0.1000	0.0000	3.0667
4.1000	21.5333	0.0000	0.0000	58.33	2.16	0.1200	0.0000	0.0000
4.2400	20.8226	0.0000	0.0000	53.33	1.97	0.0200	0.0000	4.2667
4.3600	20.2498	0.0000	0.0000	44.17	1.63	0.0400	0.0000	0.8833
4.5600	19.3621	0.0000	0.0000	44.17	1.63	0.0800	0.0000	5.3000
4.6600	18.9468	0.0000	0.0000	46.67	1.72	0.0800	0.0000	1.8667
4.8800	18.0931	0.0000	0.0000	42.50	1.57	0.0400	0.0000	0.0000
5.2800	16.7233	0.0000	0.0000	37.50	1.39	0.1200	0.0000	2.2500
5.4200	16.2916	0.0000	0.0000	37.50	1.39	0.1600	0.0000	0.7500
5.4800	16.1134	0.0000	0.0000	40.00	1.48	0.1000	0.0000	0.0000
5.6200	15.7123	0.0000	0.0000	38.33	1.42	0.0800	0.0000	2.3000
5.9000	14.9672	0.0000	0.0000	34.17	1.26	0.1600	0.0000	0.0000
6.2000	14.2437	0.0000	0.0000	155.00	5.73	0.0600	0.0000	12.4000
6.3600	13.8857	0.0000	0.0000	43.33	1.60	0.1000	0.0000	2.6000
6.5600	13.4628	0.0000	0.0000	38.33	1.42	0.1000	0.0000	1.5333
6.8000	12.9882	0.0000	0.0000	32.50	1.20	0.0200	0.0000	2.6000
7.0000	12.6175	0.0000	0.0000	34.17	1.26	0.1200	0.0000	0.6833
7.2600	12.1662	0.0000	0.0000	36.67	1.35	0.0000	0.0000	2.2000
7.3800	11.9687	0.0000	0.0000	37.50	1.39	0.1000	0.0000	0.0000
7.5000	11.7774	0.0000	0.0000	25.83	0.95	0.1000	0.0000	1.5500
7.8000	11.3251	0.0000	0.0000	26.67	0.99	0.0200	0.0000	2.6667
8.0600	10.9604	0.0000	0.0000	29.17	1.08	0.0800	0.0000	0.5833
8.1800	10.7998	0.0000	0.0000	29.17	1.08	0.0600	0.0000	1.7500
8.3800	10.5425	0.0000	0.0000	29.17	1.08	0.0200	0.0000	1.7500
8.8400	9.9949	0.0000	0.0000	802.50	29.65	0.0400	0.0000	64.2000
9.1400	9.6675	0.0000	0.0000	51.67	1.91	0.0400	0.0000	0.0000
9.1800	9.6255	0.0000	0.0000	40.83	1.51	0.0400	0.0000	0.8167
9.3800	9.4207	0.0000	0.0000	73.33	2.71	0.0800	0.0000	4.4000
9.7600	9.0548	0.0000	0.0000	27.50	1.02	0.0800	0.0000	0.0000
9.9200	8.9091	0.0000	0.0000	20.83	0.77	0.1000	0.0000	0.4167
10.1800	8.6821	0.0000	0.0000	25.00	0.92	0.0400	0.0000	1.0000
10.4400	8.4665	0.0000	0.0000	138.33	5.11	0.0800	0.0000	11.0667
10.7000	8.2613	0.0000	0.0000	20.00	0.74	0.0200	0.0000	0.8000
10.8400	8.1549	0.0000	0.0000	25.00	0.92	0.1200	0.0000	2.0000
11.0400	8.0076	0.0000	0.0000	24.17	0.89	0.0200	0.0000	0.0000
11.3400	7.7965	0.0000	0.0000	26.67	0.99	0.0800	0.0000	1.0667
12.1400	7.2844	0.0000	0.0000	195.83	7.24	0.0200	0.0000	15.6667
12.3400	7.1668	0.0000	0.0000	115.83	4.28	0.1000	0.0000	18.5333
12.4600	7.0981	0.0000	0.0000	345.83	12.78	0.0800	0.0000	20.7500
12.6800	6.9754	0.0000	0.0000	31.67	1.17	0.0200	0.0000	4.4333
12.8400	6.8888	0.0000	0.0000	22.50	0.83	0.0600	0.0000	0.0000
13.0200	6.7940	0.0000	0.0000	23.33	0.86	0.0000	0.0000	0.4667
13.1800	6.7119	0.0000	0.0000	35.83	1.32	0.0600	0.0000	1.4333
13.4000	6.6022	0.0000	0.0000	24.17	0.89	0.0400	0.0000	2.9000
13.6000	6.5055	0.0000	0.0000	50.00	1.85	0.0800	0.0000	5.0000
13.8200	6.4025	0.0000	0.0000	56.67	2.09	0.0400	0.0000	6.8000
14.1200	6.2671	0.0000	0.0000	25.00	0.92	0.1000	0.0000	0.5000
14.3000	6.1886	0.0000	0.0000	32.50	1.20	0.0000	0.0000	1.3000
14.4800	6.1121	0.0000	0.0000	20.83	0.77	0.0800	0.0000	0.4167
14.5800	6.0704	0.0000	0.0000	35.83	1.32	0.0200	0.0000	0.7167
14.7200	6.0130	0.0000	0.0000	30.00	1.11	0.1400	0.0000	1.8000
14.9000	5.9407	0.0000	0.0000	37.50	1.39	0.1200	0.0000	1.5000
15.1400	5.8471	0.0000	0.0000	21.67	0.80	0.1000	0.0000	0.4333
15.8000	5.6043	0.0000	0.0000	39.17	1.45	0.1000	0.0000	2.3500
16.0800	5.5073	0.0000	0.0000	25.00	0.92	0.0600	0.0000	1.0000
17.2600	5.1334	0.0000	0.0000	26.67	0.99	0.0800	0.0000	1.0667
17.4200	5.0866	0.0000	0.0000	29.17	1.08	0.0400	0.0000	2.3333
17.7800	4.9844	0.0000	0.0000	302.50	11.18	0.1200	0.0000	24.2000
17.9800	4.9294	0.0000	0.0000	27.50	1.02	0.0800	0.0000	3.3000
18.5800	4.7716	0.0000	0.0000	45.83	1.69	0.0200	0.0000	5.5000
18.7400	4.7312	0.0000	0.0000	135.00	4.99	0.0200	0.0000	13.5000
19.2000	4.6189	0.0000	0.0000	25.00	0.92	0.1600	0.0000	2.0000
19.4400	4.5624	0.0000	0.0000	25.00	0.92	0.0400	0.0000	0.5000
19.8600	4.4668	0.0000	0.0000	50.83	1.88	0.0400	0.0000	5.0833
20.1200	4.4097	0.0000	0.0000	21.67	0.80	0.1400	0.0000	0.4333
20.5800	4.3121	0.0000	0.0000	23.33	0.86	0.0600	0.0000	2.3333
20.8000	4.2670	0.0000	0.0000	671.67	24.82	0.1000	0.0000	53.7333
21.5400	4.1221	0.0000	0.0000	23.33	0.86	0.1200	0.0000	0.9333
22.0000	4.0369	0.0000	0.0000	292.50	10.81	0.0400	0.0000	29.2500
22.3200	3.9798	0.0000	0.0000	20.00	0.74	0.0200	0.0000	0.8000
22.4400	3.9588	0.0000	0.0000	20.00	0.74	0.1200	0.0000	0.0000
22.7800	3.9004	0.0000	0.0000	120.00	4.43	0.0600	0.0000	4.8000
23.0000	3.8636	0.0000	0.0000	47.50	1.75	0.1000	0.0000	4.7500
23.4800	3.7857	0.0000	0.0000	78.33	2.89	0.0800	0.0000	9.4000
23.7600	3.7417	0.0000	0.0000	20.00	0.74	0.1000	0.0000	0.8000
23.9800	3.7079	0.0000	0.0000	41.67	1.54	0.0400	0.0000	0.8333
24.2600	3.6657	0.0000	0.0000	82.50	3.05	0.0200	0.0000	8.2500
24.5200	3.6274	0.0000	0.0000	121.67	4.50	0.0600	0.0000	12.1667
24.8000	3.5871	0.0000	0.0000	52.50	1.94	0.0600	0.0000	6.3000
25.1200	3.5421	0.0000	0.0000	230.83	8.53	0.0000	0.0000	23.0833
25.4400	3.4983	0.0000	0.0000	78.33	2.89	0.0400	0.0000	6.2667
26.5800	3.3508	0.0000	0.0000	2706.67	100.00	0.1000	0.0000	270.6667
26.8200	3.3214	0.0000	0.0000	835.83	30.88	0.0600	0.0000	100.3000
27.2400	3.2711	0.0000	0.0000	89.17	3.29	0.0200	0.0000	10.7000
27.4800	3.2431	0.0000	0.0000	556.67	20.57	0.0200	0.0000	55.6667
27.7400	3.2133	0.0000	0.0000	187.50	6.93	0.0000	0.0000	30.0000
27.9200	3.1929	0.0000	0.0000	626.67	23.15	0.0800	0.0000	75.2000
28.2600	3.1553	0.0000	0.0000	54.17	2.00	0.0600	0.0000	4.3333
28.7000	3.1079	0.0000	0.0000	53.33	1.97	0.0400	0.0000	8.5333
29.1000	3.0661	0.0000	0.0000	25.00	0.92	0.0400	0.0000	0.0000
29.4400	3.0315	0.0000	0.0000	21.67	0.80	0.0600	0.0000	3.0333
29.8800	2.9878	0.0000	0.0000	84.17	3.11	0.0600	0.0000	5.0500
30.0400	2.9723	0.0000	0.0000	45.00	1.66	0.1000	0.0000	1.8000
30.2200	2.9550	0.0000	0.0000	35.83	1.32	0.0400	0.0000	0.7167
30.4400	2.9341	0.0000	0.0000	81.67	3.02	0.0400	0.0000	4.9000
30.7600	2.9043	0.0000	0.0000	180.83	6.68	0.0000	0.0000	18.0833
31.2400	2.8608	0.0000	0.0000	62.50	2.31	0.0600	0.0000	7.5000
31.5000	2.8378	0.0000	0.0000	44.17	1.63	0.1000	0.0000	5.3000
32.0600	2.7895	0.0000	0.0000	40.00	1.48	0.0200	0.0000	6.4000
32.2800	2.7709	0.0000	0.0000	37.50	1.39	0.1200	0.0000	3.7500
32.6600	2.7396	0.0000	0.0000	20.00	0.74	0.0000	0.0000	0.4000
32.9400	2.7169	0.0000	0.0000	28.33	1.05	0.0600	0.0000	0.5667
33.1000	2.7041	0.0000	0.0000	35.83	1.32	0.0600	0.0000	2.1500
33.4000	2.6805	0.0000	0.0000	33.33	1.23	0.0600	0.0000	0.0000
33.6600	2.6604	0.0000	0.0000	20.00	0.74	0.0600	0.0000	0.4000
33.9000	2.6421	0.0000	0.0000	35.00	1.29	0.1000	0.0000	0.7000
34.0000	2.6346	0.0000	0.0000	38.33	1.42	0.1200	0.0000	0.0000
34.5200	2.5961	0.0000	0.0000	59.17	2.19	0.0400	0.0000	7.1000
34.6400	2.5874	0.0000	0.0000	40.83	1.51	0.1200	0.0000	4.9000
35.0000	2.5616	0.0000	0.0000	115.00	4.25	0.0200	0.0000	11.5000
35.5000	2.5266	0.0000	0.0000	75.83	2.80	0.0000	0.0000	10.6167
35.7800	2.5075	0.0000	0.0000	30.00	1.11	0.1000	0.0000	0.0000
36.1000	2.4860	0.0000	0.0000	49.17	1.82	0.1200	0.0000	5.9000
36.5000	2.4597	0.0000	0.0000	328.33	12.13	0.0200	0.0000	13.1333
36.9400	2.4314	0.0000	0.0000	30.83	1.14	0.0000	0.0000	0.6167
37.1000	2.4213	0.0000	0.0000	20.00	0.74	0.1400	0.0000	1.2000
37.3600	2.4050	0.0000	0.0000	41.67	1.54	0.0000	0.0000	3.3333
37.7200	2.3829	0.0000	0.0000	57.50	2.12	0.0200	0.0000	6.9000
38.5200	2.3352	0.0000	0.0000	28.33	1.05	0.0200	0.0000	0.5667
38.8000	2.3190	0.0000	0.0000	25.00	0.92	0.1000	0.0000	1.5000
39.4200	2.2839	0.0000	0.0000	146.67	5.42	0.0400	0.0000	8.8000
39.8200	2.2619	0.0000	0.0000	28.33	1.05	0.1200	0.0000	2.2667
40.2400	2.2393	0.0000	0.0000	94.17	3.48	0.0600	0.0000	7.5333
41.6800	2.1652	0.0000	0.0000	50.00	1.85	0.0800	0.0000	7.0000
41.9200	2.1533	0.0000	0.0000	25.00	0.92	0.0800	0.0000	4.0000
42.4200	2.1291	0.0000	0.0000	120.83	4.46	0.0000	0.0000	9.6667
43.5400	2.0769	0.0000	0.0000	26.67	0.99	0.1600	0.0000	2.1333
43.8800	2.0616	0.0000	0.0000	20.83	0.77	0.0600	0.0000	0.4167
44.5400	2.0326	0.0000	0.0000	98.33	3.63	0.0600	0.0000	15.7333
44.9000	2.0171	0.0000	0.0000	36.67	1.35	0.1600	0.0000	5.8667
45.0400	2.0111	0.0000	0.0000	30.00	1.11	0.1200	0.0000	4.8000
45.5400	1.9902	0.0000	0.0000	170.83	6.31	0.0800	0.0000	27.3333
45.7400	1.9820	0.0000	0.0000	215.00	7.94	0.0600	0.0000	21.5000
46.1200	1.9665	0.0000	0.0000	21.67	0.80	0.0800	0.0000	1.7333
46.6200	1.9466	0.0000	0.0000	24.17	0.89	0.0200	0.0000	0.4833
47.0400	1.9302	0.0000	0.0000	25.00	0.92	0.0000	0.0000	3.0000
47.8400	1.8998	0.0000	0.0000	25.83	0.95	0.1600	0.0000	0.0000
47.9800	1.8946	0.0000	0.0000	25.00	0.92	0.1200	0.0000	2.0000
48.3200	1.8820	0.0000	0.0000	20.00	0.74	0.0400	0.0000	2.0000
48.7000	1.8682	0.0000	0.0000	29.17	1.08	0.1200	0.0000	1.1667
49.1600	1.8518	0.0000	0.0000	22.50	0.83	0.1200	0.0000	0.9000
49.9200	1.8254	0.0000	0.0000	44.17	1.63	0.0200	0.0000	7.0667
50.1000	1.8192	0.0000	0.0000	433.33	16.01	0.0800	0.0000	26.0000
50.5400	1.8044	0.0000	0.0000	91.67	3.39	0.0800	0.0000	9.1667
50.6800	1.7998	0.0000	0.0000	58.33	2.16	0.1000	0.0000	7.0000
51.1200	1.7853	0.0000	0.0000	36.67	1.35	0.0800	0.0000	1.4667
51.2000	1.7827	0.0000	0.0000	30.00	1.11	0.1200	0.0000	1.8000
51.4400	1.7749	0.0000	0.0000	60.83	2.25	0.1400	0.0000	1.2167
51.6000	1.7698	0.0000	0.0000	23.33	0.86	0.0200	0.0000	0.9333
52.1200	1.7534	0.0000	0.0000	20.83	0.77	0.0200	0.0000	0.4167
52.2600	1.7490	0.0000	0.0000	20.83	0.77	0.0000	0.0000	0.4167
52.9400	1.7281	0.0000	0.0000	25.83	0.95	0.1600	0.0000	0.5167
53.1600	1.7215	0.0000	0.0000	33.33	1.23	0.0200	0.0000	4.0000
53.6600	1.7066	0.0000	0.0000	20.00	0.74	0.0200	0.0000	1.2000
54.4000	1.6852	0.0000	0.0000	26.67	0.99	0.1400	0.0000	0.0000
54.8400	1.6727	0.0000	0.0000	83.33	3.08	0.0000	0.0000	6.6667
55.0000	1.6682	0.0000	0.0000	49.17	1.82	0.1200	0.0000	3.9333
55.2800	1.6604	0.0000	0.0000	55.83	2.06	0.0200	0.0000	2.2333
55.4200	1.6565	0.0000	0.0000	22.50	0.83	0.0400	0.0000	2.7000
55.6800	1.6494	0.0000	0.0000	90.00	3.33	0.0000	0.0000	5.4000
55.8400	1.6451	0.0000	0.0000	64.17	2.37	0.1600	0.0000	3.8500
56.9600	1.6153	0.0000	0.0000	21.67	0.80	0.0600	0.0000	1.7333
57.2000	1.6091	0.0000	0.0000	25.00	0.92	0.0200	0.0000	1.5000
57.6000	1.5989	0.0000	0.0000	20.83	0.77	0.0600	0.0000	2.9167
57.9600	1.5898	0.0000	0.0000	27.50	1.02	0.0600	0.0000	2.7500
58.6600	1.5725	0.0000	0.0000	25.83	0.95	0.1600	0.0000	2.0667
58.9000	1.5667	0.0000	0.0000	29.17	1.08	0.0000	0.0000	0.0000
59.0400	1.5633	0.0000	0.0000	25.83	0.95	0.1600	0.0000	2.5833
59.2000	1.5595	0.0000	0.0000	40.83	1.51	0.1000	0.0000	2.4500
59.3800	1.5552	0.0000	0.0000	25.00	0.92	0.0800	0.0000	0.0000
59.6200	1.5495	0.0000	0.0000	20.83	0.77	0.1000	0.0000	0.4167
59.9200	1.5424	0.0000	0.0000	354.17	13.08	0.0000	0.0000	21.2500
60.0600	1.5392	0.0000	0.0000	184.17	6.80	0.0600	0.0000	14.7333
60.4400	1.5304	0.0000	0.0000	23.33	0.86	0.0200	0.0000	2.3333
60.7800	1.5226	0.0000	0.0000	22.50	0.83	0.0800	0.0000	1.8000
60.9600	1.5186	0.0000	0.0000	20.83	0.77	0.0000	0.0000	0.4167
61.4200	1.5083	0.0000	0.0000	34.17	1.26	0.1200	0.0000	1.3667
61.7000	1.5021	0.0000	0.0000	35.83	1.32	0.1400	0.0000	5.0167
61.8600	1.4986	0.0000	0.0000	33.33	1.23	0.0200	0.0000	2.0000
62.7200	1.4801	0.0000	0.0000	22.50	0.83	0.0800	0.0000	0.0000
63.8600	1.4564	0.0000	0.0000	24.17	0.89	0.0600	0.0000	2.4167
63.9800	1.4540	0.0000	0.0000	33.33	1.23	0.1000	0.0000	4.0000
64.1800	1.4499	0.0000	0.0000	20.83	0.77	0.0800	0.0000	0.4167
64.3600	1.4463	0.0000	0.0000	20.00	0.74	0.0800	0.0000	0.4000