File: Generating XRD fingerprints/INPUT/Detrital data/1_2_SEPT_PF_FILTER.txt
Filename:
	C:\Program Files\Thermo Electron\WinXRD\Datafiles\FIEN\1_2_SEPT_FT.pk

File Created:
	April 15, 2019 - 02:55 PM

Specimen Id:
	1.2 SEPT FT

Specimen Name:

Specimen Description:

Comment:
Scan Type: 2Theta Scan
Start Angle: 1 deg.
Stop Angle: 65 deg.
Num Points: 3201
Step Size: 0.02 deg.
Scan Rate: 1.000000
Scan Mode: Continuous
Wavelength: 1.540562
\Kalpha1: 1.540562	\Kalpha2: 1.544390	\Kbeta: 1.392218

Optics:
		Detector:
			 Type: Fixed Slits
		Tube:
			 Type: Fixed Slits

Datas:
Peaks:

Position        Dspace          ESD(P)          Corr.Fact       Intensity       Rel.Int.        FWHM(L)         ESD(L)          Area            Source                  Curve           Strain  CSize   CSize_Source
[deg]           [A]             [deg]           [deg]           [CPS]           [CPS]           [deg]           [deg]           [deg]           [--]                    [--]            [--]    [--]    [--]
  2.6400        33.4377           0.0000          0.0000            80.00         5.30          0.1400            0.0000           3.2000       PFind                   None            0.00    0.00    None
  2.7800        31.7541           0.0000          0.0000            66.67         4.42          0.1000            0.0000           5.3333       PFind                   None            0.00    0.00    None
  2.9800        29.6234           0.0000          0.0000            77.50         5.14          0.1200            0.0000           4.6500       PFind                   None            0.00    0.00    None
  3.0800        28.6618           0.0000          0.0000            59.17         3.92          0.0800            0.0000           1.1833       PFind                   None            0.00    0.00    None
  3.2000        27.5872           0.0000          0.0000            50.83         3.37          0.1600            0.0000           3.0500       PFind                   None            0.00    0.00    None
  3.4000        25.9649           0.0000          0.0000            49.17         3.26          0.1000            0.0000           0.0000       PFind                   None            0.00    0.00    None
  3.4600        25.5148           0.0000          0.0000            42.50         2.82          0.1400            0.0000           3.4000       PFind                   None            0.00    0.00    None
  3.6600        24.1210           0.0000          0.0000            42.50         2.82          0.0600            0.0000           6.8000       PFind                   None            0.00    0.00    None
  4.0800        21.6388           0.0000          0.0000            43.33         2.87          0.0600            0.0000           3.4667       PFind                   None            0.00    0.00    None
  4.2800        20.6281           0.0000          0.0000            51.67         3.43          0.1000            0.0000           0.0000       PFind                   None            0.00    0.00    None
  4.4200        19.9750           0.0000          0.0000            37.50         2.49          0.0600            0.0000           0.7500       PFind                   None            0.00    0.00    None
  4.7200        18.7061           0.0000          0.0000            45.00         2.98          0.0600            0.0000           1.8000       PFind                   None            0.00    0.00    None
  6.2800        14.0624           0.0000          0.0000           163.33        10.83          0.1000            0.0000          22.8667       PFind                   None            0.00    0.00    None
  6.5600        13.4628           0.0000          0.0000            59.17         3.92          0.1200            0.0000           8.2833       PFind                   None            0.00    0.00    None
  6.7400        13.1037           0.0000          0.0000            66.67         4.42          0.0800            0.0000           8.0000       PFind                   None            0.00    0.00    None
  7.1000        12.4400           0.0000          0.0000            46.67         3.09          0.0600            0.0000           0.0000       PFind                   None            0.00    0.00    None
  8.3200        10.6184           0.0000          0.0000            60.00         3.98          0.0400            0.0000           1.2000       PFind                   None            0.00    0.00    None
  8.9200         9.9055           0.0000          0.0000           874.17        57.96          0.0200            0.0000         122.3833       PFind                   None            0.00    0.00    None
  9.2200         9.5838           0.0000          0.0000            71.67         4.75          0.1200            0.0000          10.0333       PFind                   None            0.00    0.00    None
  9.4800         9.3216           0.0000          0.0000            60.00         3.98          0.0800            0.0000           8.4000       PFind                   None            0.00    0.00    None
 10.5600         8.3705           0.0000          0.0000           120.83         8.01          0.1200            0.0000          12.0833       PFind                   None            0.00    0.00    None
 12.2200         7.2369           0.0000          0.0000           576.67        38.23          0.0000            0.0000          92.2667       PFind                   None            0.00    0.00    None
 12.5400         7.0530           0.0000          0.0000           619.17        41.05          0.0600            0.0000          74.3000       PFind                   None            0.00    0.00    None
 13.8800         6.3749           0.0000          0.0000            69.17         4.59          0.0200            0.0000           6.9167       PFind                   None            0.00    0.00    None
 15.0200         5.8935           0.0000          0.0000            37.50         2.49          0.0600            0.0000           3.7500       PFind                   None            0.00    0.00    None
 17.8600         4.9623           0.0000          0.0000           460.00        30.50          0.0800            0.0000          55.2000       PFind                   None            0.00    0.00    None
 18.6000         4.7665           0.0000          0.0000            94.17         6.24          0.1000            0.0000          15.0667       PFind                   None            0.00    0.00    None
 18.8600         4.7014           0.0000          0.0000           225.00        14.92          0.1400            0.0000          22.5000       PFind                   None            0.00    0.00    None
 19.9200         4.4535           0.0000          0.0000            36.67         2.43          0.0600            0.0000           5.8667       PFind                   None            0.00    0.00    None
 20.9000         4.2468           0.0000          0.0000           456.67        30.28          0.0000            0.0000          36.5333       PFind                   None            0.00    0.00    None
 22.0600         4.0261           0.0000          0.0000           240.00        15.91          0.0000            0.0000          19.2000       PFind                   None            0.00    0.00    None
 22.9600         3.8703           0.0000          0.0000            40.00         2.65          0.1000            0.0000           4.0000       PFind                   None            0.00    0.00    None
 23.0400         3.8570           0.0000          0.0000            56.67         3.76          0.1400            0.0000           5.6667       PFind                   None            0.00    0.00    None
 23.5800         3.7699           0.0000          0.0000           169.17        11.22          0.1400            0.0000          20.3000       PFind                   None            0.00    0.00    None
 23.9000         3.7201           0.0000          0.0000            93.33         6.19          0.1200            0.0000           3.7333       PFind                   None            0.00    0.00    None
 24.2800         3.6628           0.0000          0.0000            84.17         5.58          0.1600            0.0000          13.4667       PFind                   None            0.00    0.00    None
 24.6400         3.6100           0.0000          0.0000           328.33        21.77          0.1200            0.0000          52.5333       PFind                   None            0.00    0.00    None
 25.1800         3.5338           0.0000          0.0000           365.83        24.25          0.1400            0.0000          51.2167       PFind                   None            0.00    0.00    None
 25.5000         3.4902           0.0000          0.0000            95.83         6.35          0.1000            0.0000          15.3333       PFind                   None            0.00    0.00    None
 26.6800         3.3385           0.0000          0.0000          1508.33       100.00          0.0400            0.0000         181.0000       PFind                   None            0.00    0.00    None
 26.9000         3.3117           0.0000          0.0000          1190.00        78.90          0.0800            0.0000         166.6000       PFind                   None            0.00    0.00    None
 27.5400         3.2361           0.0000          0.0000           143.33         9.50          0.1200            0.0000          17.2000       PFind                   None            0.00    0.00    None
 27.7600         3.2110           0.0000          0.0000           378.33        25.08          0.0400            0.0000          37.8333       PFind                   None            0.00    0.00    None
 27.9400         3.1907           0.0000          0.0000           484.17        32.10          0.1600            0.0000          77.4667       PFind                   None            0.00    0.00    None
 28.6800         3.1100           0.0000          0.0000           130.00         8.62          0.1000            0.0000          20.8000       PFind                   None            0.00    0.00    None
 29.9200         2.9839           0.0000          0.0000           114.17         7.57          0.1600            0.0000          13.7000       PFind                   None            0.00    0.00    None
 30.2200         2.9550           0.0000          0.0000           104.17         6.91          0.0800            0.0000           2.0833       PFind                   None            0.00    0.00    None
 30.5000         2.9285           0.0000          0.0000            71.67         4.75          0.1600            0.0000           5.7333       PFind                   None            0.00    0.00    None
 31.2400         2.8608           0.0000          0.0000           110.83         7.35          0.1000            0.0000          11.0833       PFind                   None            0.00    0.00    None
 31.6000         2.8290           0.0000          0.0000            73.33         4.86          0.1000            0.0000          10.2667       PFind                   None            0.00    0.00    None
 31.8800         2.8048           0.0000          0.0000            41.67         2.76          0.0800            0.0000           0.0000       PFind                   None            0.00    0.00    None
 32.0800         2.7878           0.0000          0.0000            64.17         4.25          0.0000            0.0000           8.9833       PFind                   None            0.00    0.00    None
 32.2400         2.7743           0.0000          0.0000            62.50         4.14          0.0400            0.0000           8.7500       PFind                   None            0.00    0.00    None
 33.0600         2.7073           0.0000          0.0000            95.83         6.35          0.0800            0.0000           9.5833       PFind                   None            0.00    0.00    None
 33.9400         2.6391           0.0000          0.0000            49.17         3.26          0.0600            0.0000           1.9667       PFind                   None            0.00    0.00    None
 34.5600         2.5932           0.0000          0.0000            37.50         2.49          0.0600            0.0000           3.0000       PFind                   None            0.00    0.00    None
 34.7200         2.5816           0.0000          0.0000            63.33         4.20          0.1400            0.0000           2.5333       PFind                   None            0.00    0.00    None
 35.0400         2.5587           0.0000          0.0000            78.33         5.19          0.1600            0.0000           9.4000       PFind                   None            0.00    0.00    None
 35.7000         2.5129           0.0000          0.0000            85.83         5.69          0.1600            0.0000           6.8667       PFind                   None            0.00    0.00    None
 36.1000         2.4860           0.0000          0.0000            72.50         4.81          0.1600            0.0000          10.1500       PFind                   None            0.00    0.00    None
 36.5600         2.4558           0.0000          0.0000           147.50         9.78          0.1600            0.0000          14.7500       PFind                   None            0.00    0.00    None
 37.7400         2.3817           0.0000          0.0000            47.50         3.15          0.0400            0.0000           7.6000       PFind                   None            0.00    0.00    None
 38.1200         2.3588           0.0000          0.0000           997.50        66.13          0.0600            0.0000          59.8500       PFind                   None            0.00    0.00    None
 39.4800         2.2806           0.0000          0.0000            75.83         5.03          0.1200            0.0000           7.5833       PFind                   None            0.00    0.00    None
 40.3400         2.2339           0.0000          0.0000            62.50         4.14          0.1000            0.0000           5.0000       PFind                   None            0.00    0.00    None
 41.7200         2.1632           0.0000          0.0000            45.00         2.98          0.1400            0.0000           1.8000       PFind                   None            0.00    0.00    None
 42.4600         2.1272           0.0000          0.0000            92.50         6.13          0.0400            0.0000          11.1000       PFind                   None            0.00    0.00    None
 44.3200         2.0421           0.0000          0.0000           502.50        33.31          0.0800            0.0000          30.1500       PFind                   None            0.00    0.00    None
 45.6200         1.9869           0.0000          0.0000           340.83        22.60          0.1400            0.0000          54.5333       PFind                   None            0.00    0.00    None
 47.1400         1.9263           0.0000          0.0000            39.17         2.60          0.0400            0.0000           5.4833       PFind                   None            0.00    0.00    None
 48.1800         1.8872           0.0000          0.0000           109.17         7.24          0.1600            0.0000           6.5500       PFind                   None            0.00    0.00    None
 48.7600         1.8661           0.0000          0.0000            39.17         2.60          0.1400            0.0000           2.3500       PFind                   None            0.00    0.00    None
 50.1800         1.8165           0.0000          0.0000           215.00        14.25          0.1400            0.0000          12.9000       PFind                   None            0.00    0.00    None
 50.6400         1.8011           0.0000          0.0000            46.67         3.09          0.1200            0.0000           6.5333       PFind                   None            0.00    0.00    None
 54.8800         1.6715           0.0000          0.0000            75.83         5.03          0.1400            0.0000           6.0667       PFind                   None            0.00    0.00    None
 55.0600         1.6665           0.0000          0.0000            45.00         2.98          0.1600            0.0000           4.5000       PFind                   None            0.00    0.00    None
 55.3600         1.6582           0.0000          0.0000            38.33         2.54          0.0600            0.0000           5.3667       PFind                   None            0.00    0.00    None
 55.8200         1.6456           0.0000          0.0000            47.50         3.15          0.0800            0.0000           1.9000       PFind                   None            0.00    0.00    None
 59.2000         1.5595           0.0000          0.0000            62.50         4.14          0.1400            0.0000           3.7500       PFind                   None            0.00    0.00    None
 59.3800         1.5552           0.0000          0.0000            37.50         2.49          0.1600            0.0000           6.0000       PFind                   None            0.00    0.00    None
 60.0000         1.5406           0.0000          0.0000           141.67         9.39          0.1000            0.0000           8.5000       PFind                   None            0.00    0.00    None
 60.1600         1.5368           0.0000          0.0000            64.17         4.25          0.1400            0.0000           3.8500       PFind                   None            0.00    0.00    None
 64.4400         1.4447           0.0000          0.0000           401.67        26.63          0.0200            0.0000          24.1000       PFind                   None            0.00    0.00    None
 64.6200         1.4411           0.0000          0.0000           226.67        15.03          0.0200            0.0000          13.6000       PFind                   None            0.00    0.00    None