File: Generating XRD fingerprints/INPUT/Detrital data/22_1_SEPT_PF_FILTER.txt
Filename:
	C:\Program Files\Thermo Electron\WinXRD\Datafiles\FIEN\22_1_SEPT_FILTER.pk

File Created:
	April 15, 2019 - 03:32 PM

Specimen Id:
	22.1 SEPT FILTRE

Specimen Name:

Specimen Description:

Comment:
Scan Type: 2Theta Scan
Start Angle: 1 deg.
Stop Angle: 65 deg.
Num Points: 3201
Step Size: 0.02 deg.
Scan Rate: 1.000000
Scan Mode: Continuous
Wavelength: 1.540562
\Kalpha1: 1.540562	\Kalpha2: 1.544390	\Kbeta: 1.392218

Optics:
		Detector:
			 Type: Fixed Slits
		Tube:
			 Type: Fixed Slits

Datas:
Peaks:

Position        Dspace          ESD(P)          Corr.Fact       Intensity       Rel.Int.        FWHM(L)         ESD(L)          Area            Source                  Curve           Strain  CSize   CSize_Source
[deg]           [A]             [deg]           [deg]           [CPS]           [CPS]           [deg]           [deg]           [deg]           [--]                    [--]            [--]    [--]    [--]
  2.7400        32.2176           0.0000          0.0000            75.83         3.06          0.1600            0.0000           4.5500       PFind                   None            0.00    0.00    None
  2.9200        30.2319           0.0000          0.0000            59.17         2.38          0.1600            0.0000           5.9167       PFind                   None            0.00    0.00    None
  3.1400        28.1142           0.0000          0.0000            69.17         2.79          0.1600            0.0000           1.3833       PFind                   None            0.00    0.00    None
  3.2600        27.0796           0.0000          0.0000            49.17         1.98          0.1600            0.0000           5.9000       PFind                   None            0.00    0.00    None
  3.4000        25.9649           0.0000          0.0000            50.00         2.02          0.1000            0.0000           4.0000       PFind                   None            0.00    0.00    None
  3.5600        24.7983           0.0000          0.0000            45.83         1.85          0.1200            0.0000           3.6667       PFind                   None            0.00    0.00    None
  3.7600        23.4797           0.0000          0.0000            55.00         2.22          0.1400            0.0000           5.5000       PFind                   None            0.00    0.00    None
  3.9400        22.4074           0.0000          0.0000            38.33         1.55          0.0800            0.0000           0.7667       PFind                   None            0.00    0.00    None
  4.1800        21.1214           0.0000          0.0000            38.33         1.55          0.0600            0.0000           4.6000       PFind                   None            0.00    0.00    None
  4.5400        19.4473           0.0000          0.0000            39.17         1.58          0.0600            0.0000           0.7833       PFind                   None            0.00    0.00    None
  4.7000        18.7856           0.0000          0.0000            35.00         1.41          0.0400            0.0000           2.1000       PFind                   None            0.00    0.00    None
  4.8200        18.3182           0.0000          0.0000            36.67         1.48          0.0600            0.0000           0.7333       PFind                   None            0.00    0.00    None
  5.0200        17.5888           0.0000          0.0000            36.67         1.48          0.0200            0.0000           0.0000       PFind                   None            0.00    0.00    None
  5.7400        15.3841           0.0000          0.0000            35.83         1.44          0.1200            0.0000           2.8667       PFind                   None            0.00    0.00    None
  6.2200        14.1979           0.0000          0.0000            99.17         4.00          0.1000            0.0000          15.8667       PFind                   None            0.00    0.00    None
  6.5600        13.4628           0.0000          0.0000            45.83         1.85          0.1200            0.0000           2.7500       PFind                   None            0.00    0.00    None
  6.6800        13.2212           0.0000          0.0000            35.00         1.41          0.0400            0.0000           2.8000       PFind                   None            0.00    0.00    None
  8.9000         9.9277           0.0000          0.0000           229.17         9.24          0.0200            0.0000          18.3333       PFind                   None            0.00    0.00    None
  9.2200         9.5838           0.0000          0.0000            35.83         1.44          0.0200            0.0000           3.5833       PFind                   None            0.00    0.00    None
  9.4600         9.3412           0.0000          0.0000            37.50         1.51          0.1600            0.0000           3.0000       PFind                   None            0.00    0.00    None
 10.5600         8.3705           0.0000          0.0000            61.67         2.49          0.1600            0.0000           6.1667       PFind                   None            0.00    0.00    None
 12.2400         7.2251           0.0000          0.0000           269.17        10.85          0.1200            0.0000          37.6833       PFind                   None            0.00    0.00    None
 12.5400         7.0530           0.0000          0.0000           190.00         7.66          0.0800            0.0000          26.6000       PFind                   None            0.00    0.00    None
 13.8600         6.3841           0.0000          0.0000            41.67         1.68          0.0800            0.0000           4.1667       PFind                   None            0.00    0.00    None
 14.0200         6.3116           0.0000          0.0000            35.00         1.41          0.0800            0.0000           3.5000       PFind                   None            0.00    0.00    None
 17.8800         4.9568           0.0000          0.0000           136.67         5.51          0.1000            0.0000          16.4000       PFind                   None            0.00    0.00    None
 18.6200         4.7614           0.0000          0.0000            53.33         2.15          0.0400            0.0000           8.5333       PFind                   None            0.00    0.00    None
 18.8600         4.7014           0.0000          0.0000            76.67         3.09          0.1200            0.0000           9.2000       PFind                   None            0.00    0.00    None
 19.8800         4.4624           0.0000          0.0000            45.00         1.81          0.0400            0.0000           3.6000       PFind                   None            0.00    0.00    None
 20.8800         4.2509           0.0000          0.0000           777.50        31.34          0.1000            0.0000          62.2000       PFind                   None            0.00    0.00    None
 22.0600         4.0261           0.0000          0.0000           243.33         9.81          0.0600            0.0000          19.4667       PFind                   None            0.00    0.00    None
 22.9800         3.8669           0.0000          0.0000            42.50         1.71          0.0800            0.0000           5.9500       PFind                   None            0.00    0.00    None
 23.6200         3.7636           0.0000          0.0000            98.33         3.96          0.1200            0.0000          11.8000       PFind                   None            0.00    0.00    None
 24.3000         3.6598           0.0000          0.0000            52.50         2.12          0.1200            0.0000           6.3000       PFind                   None            0.00    0.00    None
 24.6400         3.6100           0.0000          0.0000           268.33        10.82          0.0200            0.0000          37.5667       PFind                   None            0.00    0.00    None
 25.2000         3.5311           0.0000          0.0000           179.17         7.22          0.1600            0.0000          25.0833       PFind                   None            0.00    0.00    None
 25.5200         3.4875           0.0000          0.0000           121.67         4.90          0.1000            0.0000          19.4667       PFind                   None            0.00    0.00    None
 26.6800         3.3385           0.0000          0.0000          2480.83       100.00          0.0600            0.0000         297.7000       PFind                   None            0.00    0.00    None
 26.9000         3.3117           0.0000          0.0000           606.67        24.45          0.0200            0.0000          97.0667       PFind                   None            0.00    0.00    None
 27.4800         3.2431           0.0000          0.0000           423.33        17.06          0.1200            0.0000          42.3333       PFind                   None            0.00    0.00    None
 27.9800         3.1862           0.0000          0.0000           355.83        14.34          0.0800            0.0000          56.9333       PFind                   None            0.00    0.00    None
 28.7200         3.1058           0.0000          0.0000            94.17         3.80          0.0800            0.0000          15.0667       PFind                   None            0.00    0.00    None
 29.9200         2.9839           0.0000          0.0000           113.33         4.57          0.1400            0.0000          18.1333       PFind                   None            0.00    0.00    None
 30.1400         2.9626           0.0000          0.0000           130.83         5.27          0.0800            0.0000          15.7000       PFind                   None            0.00    0.00    None
 30.4800         2.9304           0.0000          0.0000            55.00         2.22          0.1600            0.0000           8.8000       PFind                   None            0.00    0.00    None
 30.5400         2.9247           0.0000          0.0000            64.17         2.59          0.1600            0.0000          10.2667       PFind                   None            0.00    0.00    None
 30.9000         2.8915           0.0000          0.0000            45.00         1.81          0.0600            0.0000           6.3000       PFind                   None            0.00    0.00    None
 31.2800         2.8572           0.0000          0.0000            95.00         3.83          0.1600            0.0000          13.3000       PFind                   None            0.00    0.00    None
 31.5800         2.8307           0.0000          0.0000            56.67         2.28          0.1400            0.0000           9.0667       PFind                   None            0.00    0.00    None
 32.1200         2.7844           0.0000          0.0000            60.83         2.45          0.1200            0.0000           8.5167       PFind                   None            0.00    0.00    None
 33.1800         2.6978           0.0000          0.0000            40.83         1.65          0.0600            0.0000           4.0833       PFind                   None            0.00    0.00    None
 34.0400         2.6316           0.0000          0.0000            41.67         1.68          0.1600            0.0000           1.6667       PFind                   None            0.00    0.00    None
 34.6200         2.5888           0.0000          0.0000            77.50         3.12          0.1400            0.0000           9.3000       PFind                   None            0.00    0.00    None
 34.7800         2.5773           0.0000          0.0000            85.00         3.43          0.1200            0.0000           8.5000       PFind                   None            0.00    0.00    None
 35.0800         2.5559           0.0000          0.0000            84.17         3.39          0.1400            0.0000          13.4667       PFind                   None            0.00    0.00    None
 35.5600         2.5225           0.0000          0.0000            84.17         3.39          0.1200            0.0000           8.4167       PFind                   None            0.00    0.00    None
 35.7600         2.5089           0.0000          0.0000           160.00         6.45          0.0800            0.0000           6.4000       PFind                   None            0.00    0.00    None
 36.1400         2.4833           0.0000          0.0000            54.17         2.18          0.1000            0.0000           7.5833       PFind                   None            0.00    0.00    None
 36.6600         2.4493           0.0000          0.0000           290.83        11.72          0.0800            0.0000          46.5333       PFind                   None            0.00    0.00    None
 37.6000         2.3902           0.0000          0.0000            76.67         3.09          0.1600            0.0000           7.6667       PFind                   None            0.00    0.00    None
 38.8200         2.3178           0.0000          0.0000            49.17         1.98          0.1400            0.0000           7.8667       PFind                   None            0.00    0.00    None
 38.9000         2.3133           0.0000          0.0000            60.00         2.42          0.1600            0.0000           1.2000       PFind                   None            0.00    0.00    None
 39.5000         2.2795           0.0000          0.0000            86.67         3.49          0.0800            0.0000          10.4000       PFind                   None            0.00    0.00    None
 40.3200         2.2350           0.0000          0.0000            89.17         3.59          0.0800            0.0000          10.7000       PFind                   None            0.00    0.00    None
 41.8000         2.1592           0.0000          0.0000            50.00         2.02          0.1600            0.0000           6.0000       PFind                   None            0.00    0.00    None
 41.9800         2.1504           0.0000          0.0000            45.83         1.85          0.0200            0.0000           2.7500       PFind                   None            0.00    0.00    None
 42.0400         2.1475           0.0000          0.0000            46.67         1.88          0.1600            0.0000           1.8667       PFind                   None            0.00    0.00    None
 42.4600         2.1272           0.0000          0.0000           160.83         6.48          0.0600            0.0000          16.0833       PFind                   None            0.00    0.00    None
 44.2400         2.0456           0.0000          0.0000            40.83         1.65          0.0600            0.0000           3.2667       PFind                   None            0.00    0.00    None
 45.1200         2.0078           0.0000          0.0000            38.33         1.55          0.0800            0.0000           3.0667       PFind                   None            0.00    0.00    None
 45.6200         1.9869           0.0000          0.0000           285.83        11.52          0.1000            0.0000          45.7333       PFind                   None            0.00    0.00    None
 48.0200         1.8931           0.0000          0.0000            40.00         1.61          0.0400            0.0000           3.2000       PFind                   None            0.00    0.00    None
 49.2600         1.8483           0.0000          0.0000            94.17         3.80          0.1200            0.0000           3.7667       PFind                   None            0.00    0.00    None
 49.3800         1.8441           0.0000          0.0000            57.50         2.32          0.1400            0.0000           3.4500       PFind                   None            0.00    0.00    None
 50.1600         1.8172           0.0000          0.0000           277.50        11.19          0.0200            0.0000          16.6500       PFind                   None            0.00    0.00    None
 50.5800         1.8031           0.0000          0.0000           152.50         6.15          0.0800            0.0000           6.1000       PFind                   None            0.00    0.00    None
 50.7200         1.7984           0.0000          0.0000           114.17         4.60          0.1400            0.0000           6.8500       PFind                   None            0.00    0.00    None
 51.1600         1.7840           0.0000          0.0000            37.50         1.51          0.1400            0.0000           3.0000       PFind                   None            0.00    0.00    None
 53.3200         1.7167           0.0000          0.0000            43.33         1.75          0.1000            0.0000           2.6000       PFind                   None            0.00    0.00    None
 54.8600         1.6721           0.0000          0.0000           112.50         4.53          0.1000            0.0000           9.0000       PFind                   None            0.00    0.00    None
 55.0000         1.6682           0.0000          0.0000            85.00         3.43          0.1400            0.0000          11.9000       PFind                   None            0.00    0.00    None
 55.3400         1.6587           0.0000          0.0000            45.00         1.81          0.1200            0.0000           7.2000       PFind                   None            0.00    0.00    None
 55.8800         1.6440           0.0000          0.0000            35.83         1.44          0.1200            0.0000           2.8667       PFind                   None            0.00    0.00    None
 58.7400         1.5706           0.0000          0.0000            40.83         1.65          0.0400            0.0000           0.8167       PFind                   None            0.00    0.00    None
 59.1800         1.5599           0.0000          0.0000            35.00         1.41          0.0400            0.0000           2.1000       PFind                   None            0.00    0.00    None
 60.0000         1.5406           0.0000          0.0000           203.33         8.20          0.0000            0.0000          24.4000       PFind                   None            0.00    0.00    None
 61.0200         1.5172           0.0000          0.0000            49.17         1.98          0.0400            0.0000           0.9833       PFind                   None            0.00    0.00    None
 61.5200         1.5061           0.0000          0.0000            46.67         1.88          0.1000            0.0000           5.6000       PFind                   None            0.00    0.00    None
 61.9600         1.4965           0.0000          0.0000            41.67         1.68          0.0800            0.0000           1.6667       PFind                   None            0.00    0.00    None
 64.0400         1.4528           0.0000          0.0000            36.67         1.48          0.0800            0.0000           2.9333       PFind                   None            0.00    0.00    None
 64.4000         1.4455           0.0000          0.0000            50.00         2.02          0.1000            0.0000           2.0000       PFind                   None            0.00    0.00    None
 64.8800         1.4360           0.0000          0.0000            75.00         3.02          0.1000            0.0000           3.0000       PFind                   None            0.00    0.00    None