File: Generating XRD fingerprints/INPUT/Detrital data/25_9_11_30_1_PF_FILTER.txt
Filename:
	C:\Program Files\Thermo Electron\WinXRD\Datafiles\FIEN\25_9_11_30_1 FILTER.pk

File Created:
	April 15, 2019 - 03:42 PM

Specimen Id:
	25.9  11.30 1 FILTER

Specimen Name:

Specimen Description:

Comment:
Scan Type: 2Theta Scan
Start Angle: 1 deg.
Stop Angle: 65 deg.
Num Points: 3201
Step Size: 0.02 deg.
Scan Rate: 1.000000
Scan Mode: Continuous
Wavelength: 1.540562
\Kalpha1: 1.540562	\Kalpha2: 1.544390	\Kbeta: 1.392218

Optics:
		Detector:
			 Type: Fixed Slits
		Tube:
			 Type: Fixed Slits

Datas:
Peaks:

Position        Dspace          ESD(P)          Corr.Fact       Intensity       Rel.Int.        FWHM(L)         ESD(L)          Area            Source                  Curve           Strain  CSize   CSize_Source
[deg]           [A]             [deg]           [deg]           [CPS]           [CPS]           [deg]           [deg]           [deg]           [--]                    [--]            [--]    [--]    [--]
  2.7000        32.6948           0.0000          0.0000            59.17         2.76          0.1400            0.0000           3.5500       PFind                   None            0.00    0.00    None
  2.8400        31.0834           0.0000          0.0000            52.50         2.45          0.0200            0.0000           0.0000       PFind                   None            0.00    0.00    None
  2.9800        29.6234           0.0000          0.0000            51.67         2.41          0.1200            0.0000           2.0667       PFind                   None            0.00    0.00    None
  3.1800        27.7607           0.0000          0.0000            68.33         3.18          0.1000            0.0000           4.1000       PFind                   None            0.00    0.00    None
  3.4400        25.6631           0.0000          0.0000            47.50         2.21          0.1200            0.0000           7.6000       PFind                   None            0.00    0.00    None
  3.5600        24.7983           0.0000          0.0000            50.00         2.33          0.1600            0.0000           1.0000       PFind                   None            0.00    0.00    None
  3.7600        23.4797           0.0000          0.0000            56.67         2.64          0.1600            0.0000           5.6667       PFind                   None            0.00    0.00    None
  3.8600        22.8716           0.0000          0.0000            44.17         2.06          0.1000            0.0000           3.5333       PFind                   None            0.00    0.00    None
  4.1200        21.4288           0.0000          0.0000            59.17         2.76          0.1400            0.0000           2.3667       PFind                   None            0.00    0.00    None
  4.2800        20.6281           0.0000          0.0000            39.17         1.82          0.0800            0.0000           2.3500       PFind                   None            0.00    0.00    None
  4.3600        20.2498           0.0000          0.0000            45.00         2.10          0.1400            0.0000           2.7000       PFind                   None            0.00    0.00    None
  4.4400        19.8851           0.0000          0.0000            43.33         2.02          0.1400            0.0000           0.8667       PFind                   None            0.00    0.00    None
  4.6200        19.1107           0.0000          0.0000            38.33         1.79          0.1200            0.0000           1.5333       PFind                   None            0.00    0.00    None
  4.7800        18.4714           0.0000          0.0000            54.17         2.52          0.0400            0.0000           1.0833       PFind                   None            0.00    0.00    None
  4.9000        18.0193           0.0000          0.0000            34.17         1.59          0.1000            0.0000           4.7833       PFind                   None            0.00    0.00    None
  5.1600        17.1119           0.0000          0.0000            31.67         1.48          0.1600            0.0000           0.6333       PFind                   None            0.00    0.00    None
  5.3400        16.5355           0.0000          0.0000            28.33         1.32          0.0800            0.0000           0.5667       PFind                   None            0.00    0.00    None
  5.5000        16.0548           0.0000          0.0000            27.50         1.28          0.1400            0.0000           1.1000       PFind                   None            0.00    0.00    None
  6.3000        14.0178           0.0000          0.0000           270.00        12.58          0.1400            0.0000          43.2000       PFind                   None            0.00    0.00    None
  6.7800        13.0264           0.0000          0.0000            70.00         3.26          0.0600            0.0000           1.4000       PFind                   None            0.00    0.00    None
  6.8400        12.9123           0.0000          0.0000            44.17         2.06          0.0200            0.0000           1.7667       PFind                   None            0.00    0.00    None
  7.0400        12.5459           0.0000          0.0000            28.33         1.32          0.0800            0.0000           0.5667       PFind                   None            0.00    0.00    None
  7.3000        12.0996           0.0000          0.0000            45.00         2.10          0.1200            0.0000           5.4000       PFind                   None            0.00    0.00    None
  7.5600        11.6841           0.0000          0.0000            28.33         1.32          0.0000            0.0000           1.7000       PFind                   None            0.00    0.00    None
  7.7600        11.3834           0.0000          0.0000            40.00         1.86          0.1600            0.0000           1.6000       PFind                   None            0.00    0.00    None
  8.0400        10.9876           0.0000          0.0000            48.33         2.25          0.1600            0.0000           3.8667       PFind                   None            0.00    0.00    None
  8.1200        10.8795           0.0000          0.0000            60.00         2.80          0.0600            0.0000           0.0000       PFind                   None            0.00    0.00    None
  8.2200        10.7474           0.0000          0.0000            40.00         1.86          0.1200            0.0000           0.8000       PFind                   None            0.00    0.00    None
  8.4200        10.4925           0.0000          0.0000            62.50         2.91          0.1400            0.0000           3.7500       PFind                   None            0.00    0.00    None
  8.9600         9.8614           0.0000          0.0000           940.00        43.79          0.1600            0.0000         112.8000       PFind                   None            0.00    0.00    None
  9.5000         9.3020           0.0000          0.0000           110.83         5.16          0.0200            0.0000          11.0833       PFind                   None            0.00    0.00    None
 10.6600         8.2922           0.0000          0.0000           115.83         5.40          0.0200            0.0000           9.2667       PFind                   None            0.00    0.00    None
 11.1000         7.9645           0.0000          0.0000            30.83         1.44          0.0600            0.0000           0.6167       PFind                   None            0.00    0.00    None
 12.2800         7.2017           0.0000          0.0000          1181.67        55.05          0.0400            0.0000         165.4333       PFind                   None            0.00    0.00    None
 12.5600         7.0418           0.0000          0.0000           705.83        32.88          0.1000            0.0000         112.9333       PFind                   None            0.00    0.00    None
 13.0600         6.7733           0.0000          0.0000            34.17         1.59          0.1400            0.0000           1.3667       PFind                   None            0.00    0.00    None
 13.7800         6.4210           0.0000          0.0000            50.83         2.37          0.1600            0.0000           4.0667       PFind                   None            0.00    0.00    None
 13.9400         6.3476           0.0000          0.0000            73.33         3.42          0.0000            0.0000           4.4000       PFind                   None            0.00    0.00    None
 17.9000         4.9513           0.0000          0.0000           360.00        16.77          0.0400            0.0000          50.4000       PFind                   None            0.00    0.00    None
 18.8800         4.6964           0.0000          0.0000           259.17        12.07          0.0200            0.0000          36.2833       PFind                   None            0.00    0.00    None
 19.8000         4.4802           0.0000          0.0000            33.33         1.55          0.1600            0.0000           5.3333       PFind                   None            0.00    0.00    None
 19.9600         4.4447           0.0000          0.0000            45.83         2.14          0.1000            0.0000           6.4167       PFind                   None            0.00    0.00    None
 20.0800         4.4184           0.0000          0.0000            53.33         2.48          0.1400            0.0000           2.1333       PFind                   None            0.00    0.00    None
 20.9600         4.2348           0.0000          0.0000           166.67         7.76          0.0400            0.0000          23.3333       PFind                   None            0.00    0.00    None
 21.8000         4.0735           0.0000          0.0000            30.00         1.40          0.0800            0.0000           1.2000       PFind                   None            0.00    0.00    None
 22.1400         4.0117           0.0000          0.0000           115.00         5.36          0.0400            0.0000          16.1000       PFind                   None            0.00    0.00    None
 22.4800         3.9518           0.0000          0.0000            29.17         1.36          0.0400            0.0000           1.1667       PFind                   None            0.00    0.00    None
 23.0800         3.8504           0.0000          0.0000            32.50         1.51          0.1200            0.0000           0.6500       PFind                   None            0.00    0.00    None
 23.6400         3.7604           0.0000          0.0000            85.83         4.00          0.0600            0.0000          10.3000       PFind                   None            0.00    0.00    None
 24.3800         3.6480           0.0000          0.0000            50.83         2.37          0.0600            0.0000           3.0500       PFind                   None            0.00    0.00    None
 24.7200         3.5985           0.0000          0.0000           544.17        25.35          0.0600            0.0000          87.0667       PFind                   None            0.00    0.00    None
 25.2400         3.5256           0.0000          0.0000           462.50        21.55          0.0200            0.0000          74.0000       PFind                   None            0.00    0.00    None
 25.5600         3.4822           0.0000          0.0000            72.50         3.38          0.0200            0.0000          11.6000       PFind                   None            0.00    0.00    None
 26.7400         3.3311           0.0000          0.0000          1231.67        57.38          0.0000            0.0000         147.8000       PFind                   None            0.00    0.00    None
 26.9600         3.3044           0.0000          0.0000           953.33        44.41          0.0600            0.0000         152.5333       PFind                   None            0.00    0.00    None
 27.6200         3.2269           0.0000          0.0000           626.67        29.19          0.0800            0.0000          62.6667       PFind                   None            0.00    0.00    None
 28.0000         3.1840           0.0000          0.0000           532.50        24.81          0.0600            0.0000          53.2500       PFind                   None            0.00    0.00    None
 28.4200         3.1379           0.0000          0.0000            45.83         2.14          0.1000            0.0000           5.5000       PFind                   None            0.00    0.00    None
 28.7000         3.1079           0.0000          0.0000           135.00         6.29          0.1600            0.0000          18.9000       PFind                   None            0.00    0.00    None
 29.9800         2.9781           0.0000          0.0000            64.17         2.99          0.0200            0.0000           7.7000       PFind                   None            0.00    0.00    None
 30.2600         2.9512           0.0000          0.0000            61.67         2.87          0.1600            0.0000           1.2333       PFind                   None            0.00    0.00    None
 30.5600         2.9229           0.0000          0.0000            53.33         2.48          0.0400            0.0000           5.3333       PFind                   None            0.00    0.00    None
 31.3400         2.8519           0.0000          0.0000            60.00         2.80          0.0800            0.0000           9.6000       PFind                   None            0.00    0.00    None
 31.7200         2.8186           0.0000          0.0000            79.17         3.69          0.0800            0.0000          11.0833       PFind                   None            0.00    0.00    None
 32.1400         2.7827           0.0000          0.0000            34.17         1.59          0.0800            0.0000           3.4167       PFind                   None            0.00    0.00    None
 32.2800         2.7709           0.0000          0.0000            45.83         2.14          0.1600            0.0000           0.9167       PFind                   None            0.00    0.00    None
 32.3800         2.7626           0.0000          0.0000            79.17         3.69          0.0400            0.0000           0.0000       PFind                   None            0.00    0.00    None
 34.4000         2.6049           0.0000          0.0000            37.50         1.75          0.0600            0.0000           3.7500       PFind                   None            0.00    0.00    None
 34.6600         2.5859           0.0000          0.0000            30.00         1.40          0.0200            0.0000           1.8000       PFind                   None            0.00    0.00    None
 35.0000         2.5616           0.0000          0.0000            37.50         1.75          0.1400            0.0000           4.5000       PFind                   None            0.00    0.00    None
 35.1400         2.5517           0.0000          0.0000            33.33         1.55          0.0800            0.0000           5.3333       PFind                   None            0.00    0.00    None
 35.6000         2.5198           0.0000          0.0000            53.33         2.48          0.1400            0.0000           4.2667       PFind                   None            0.00    0.00    None
 36.1400         2.4833           0.0000          0.0000            90.00         4.19          0.1200            0.0000          10.8000       PFind                   None            0.00    0.00    None
 36.6200         2.4519           0.0000          0.0000            65.00         3.03          0.0800            0.0000           9.1000       PFind                   None            0.00    0.00    None
 36.7600         2.4429           0.0000          0.0000            36.67         1.71          0.0400            0.0000           2.2000       PFind                   None            0.00    0.00    None
 37.2800         2.4100           0.0000          0.0000            41.67         1.94          0.0200            0.0000           1.6667       PFind                   None            0.00    0.00    None
 37.5000         2.3963           0.0000          0.0000            44.17         2.06          0.1200            0.0000           3.5333       PFind                   None            0.00    0.00    None
 38.2200         2.3528           0.0000          0.0000          2146.67       100.00          0.0600            0.0000         300.5333       PFind                   None            0.00    0.00    None
 38.7200         2.3236           0.0000          0.0000            29.17         1.36          0.0400            0.0000           2.9167       PFind                   None            0.00    0.00    None
 39.5800         2.2751           0.0000          0.0000            40.00         1.86          0.0600            0.0000           3.2000       PFind                   None            0.00    0.00    None
 42.5400         2.1234           0.0000          0.0000            40.83         1.90          0.1000            0.0000           6.5333       PFind                   None            0.00    0.00    None
 44.3800         2.0395           0.0000          0.0000           939.17        43.75          0.0200            0.0000         112.7000       PFind                   None            0.00    0.00    None
 45.0400         2.0111           0.0000          0.0000            29.17         1.36          0.1000            0.0000           2.9167       PFind                   None            0.00    0.00    None
 45.6600         1.9853           0.0000          0.0000           245.00        11.41          0.0200            0.0000          39.2000       PFind                   None            0.00    0.00    None
 46.0800         1.9681           0.0000          0.0000            28.33         1.32          0.0600            0.0000           1.7000       PFind                   None            0.00    0.00    None
 46.3000         1.9593           0.0000          0.0000            31.67         1.48          0.1000            0.0000           0.6333       PFind                   None            0.00    0.00    None
 50.2400         1.8145           0.0000          0.0000            68.33         3.18          0.1200            0.0000           5.4667       PFind                   None            0.00    0.00    None
 50.3600         1.8105           0.0000          0.0000            60.83         2.83          0.0400            0.0000           6.0833       PFind                   None            0.00    0.00    None
 50.6800         1.7998           0.0000          0.0000            52.50         2.45          0.0400            0.0000           2.1000       PFind                   None            0.00    0.00    None
 50.8000         1.7958           0.0000          0.0000            41.67         1.94          0.1000            0.0000           1.6667       PFind                   None            0.00    0.00    None
 54.9800         1.6687           0.0000          0.0000            40.83         1.90          0.0000            0.0000           3.2667       PFind                   None            0.00    0.00    None
 55.1400         1.6643           0.0000          0.0000            27.50         1.28          0.0800            0.0000           1.6500       PFind                   None            0.00    0.00    None
 57.6800         1.5969           0.0000          0.0000            28.33         1.32          0.0800            0.0000           0.0000       PFind                   None            0.00    0.00    None
 60.0600         1.5392           0.0000          0.0000            54.17         2.52          0.1400            0.0000           4.3333       PFind                   None            0.00    0.00    None
 60.2200         1.5355           0.0000          0.0000            43.33         2.02          0.1600            0.0000           3.4667       PFind                   None            0.00    0.00    None
 64.5400         1.4427           0.0000          0.0000           563.33        26.24          0.0400            0.0000          45.0667       PFind                   None            0.00    0.00    None
 64.6800         1.4399           0.0000          0.0000           312.50        14.56          0.0200            0.0000          43.7500       PFind                   None            0.00    0.00    None