File: Generating XRD fingerprints/INPUT/Detrital data/25_9_9_55_2_PF_FILTER.txt
Filename:
	C:\Program Files\Thermo Electron\WinXRD\Datafiles\FIEN\25_9_9.55_2 FILTER.pk

File Created:
	April 15, 2019 - 03:40 PM

Specimen Id:
	25.9 FILTRE 2 FT

Specimen Name:

Specimen Description:

Comment:
Scan Type: 2Theta Scan
Start Angle: 2 deg.
Stop Angle: 65 deg.
Num Points: 3151
Step Size: 0.02 deg.
Scan Rate: 1.000000
Scan Mode: Continuous
Wavelength: 1.540562
\Kalpha1: 1.540562	\Kalpha2: 1.544390	\Kbeta: 1.392218

Optics:
		Detector:
			 Type: Fixed Slits
		Tube:
			 Type: Fixed Slits

Datas:
Peaks:

Position        Dspace          ESD(P)          Corr.Fact       Intensity       Rel.Int.        FWHM(L)         ESD(L)          Area            Source                  Curve           Strain  CSize   CSize_Source
[deg]           [A]             [deg]           [deg]           [CPS]           [CPS]           [deg]           [deg]           [deg]           [--]                    [--]            [--]    [--]    [--]
  3.7000        23.8603           0.0000          0.0000            46.67         1.58          0.1400            0.0000           5.6000       PFind                   None            0.00    0.00    None
  3.9000        22.6371           0.0000          0.0000            40.83         1.38          0.1600            0.0000           4.0833       PFind                   None            0.00    0.00    None
  4.1200        21.4288           0.0000          0.0000            43.33         1.47          0.0400            0.0000           6.9333       PFind                   None            0.00    0.00    None
  4.2800        20.6281           0.0000          0.0000            50.00         1.69          0.1200            0.0000           4.0000       PFind                   None            0.00    0.00    None
  4.5200        19.5333           0.0000          0.0000            36.67         1.24          0.0600            0.0000           2.2000       PFind                   None            0.00    0.00    None
  4.8400        18.2426           0.0000          0.0000            36.67         1.24          0.0800            0.0000           1.4667       PFind                   None            0.00    0.00    None
  5.3600        16.4739           0.0000          0.0000            38.33         1.30          0.1400            0.0000           0.7667       PFind                   None            0.00    0.00    None
  5.4600        16.1724           0.0000          0.0000            35.83         1.21          0.1000            0.0000           4.3000       PFind                   None            0.00    0.00    None
  6.1600        14.3361           0.0000          0.0000           274.17         9.29          0.0600            0.0000          27.4167       PFind                   None            0.00    0.00    None
  6.6000        13.3813           0.0000          0.0000            39.17         1.33          0.1200            0.0000           5.4833       PFind                   None            0.00    0.00    None
  6.7200        13.1426           0.0000          0.0000            35.83         1.21          0.1000            0.0000           1.4333       PFind                   None            0.00    0.00    None
  6.9000        12.8002           0.0000          0.0000            48.33         1.64          0.0800            0.0000           0.9667       PFind                   None            0.00    0.00    None
  7.0800        12.4751           0.0000          0.0000            41.67         1.41          0.1600            0.0000           0.8333       PFind                   None            0.00    0.00    None
  7.6000        11.6227           0.0000          0.0000            45.00         1.52          0.0800            0.0000           0.9000       PFind                   None            0.00    0.00    None
  7.9000        11.1820           0.0000          0.0000            39.17         1.33          0.1000            0.0000           0.7833       PFind                   None            0.00    0.00    None
  8.2000        10.7735           0.0000          0.0000            38.33         1.30          0.0800            0.0000           0.7667       PFind                   None            0.00    0.00    None
  8.3200        10.6184           0.0000          0.0000            52.50         1.78          0.0400            0.0000           3.1500       PFind                   None            0.00    0.00    None
  8.8000        10.0403           0.0000          0.0000          1073.33        36.35          0.0600            0.0000         107.3333       PFind                   None            0.00    0.00    None
  9.1200         9.6887           0.0000          0.0000            65.00         2.20          0.0000            0.0000           7.8000       PFind                   None            0.00    0.00    None
  9.4000         9.4007           0.0000          0.0000            65.83         2.23          0.1000            0.0000           5.2667       PFind                   None            0.00    0.00    None
 10.4200         8.4827           0.0000          0.0000           110.00         3.73          0.0800            0.0000           6.6000       PFind                   None            0.00    0.00    None
 12.1200         7.2964           0.0000          0.0000           558.33        18.91          0.1000            0.0000          55.8333       PFind                   None            0.00    0.00    None
 12.4200         7.1208           0.0000          0.0000          1089.17        36.89          0.0800            0.0000          87.1333       PFind                   None            0.00    0.00    None
 13.7800         6.4210           0.0000          0.0000            62.50         2.12          0.1400            0.0000           6.2500       PFind                   None            0.00    0.00    None
 17.7400         4.9956           0.0000          0.0000           487.50        16.51          0.1400            0.0000          58.5000       PFind                   None            0.00    0.00    None
 18.2400         4.8597           0.0000          0.0000            46.67         1.58          0.0400            0.0000           0.9333       PFind                   None            0.00    0.00    None
 18.4800         4.7972           0.0000          0.0000            96.67         3.27          0.0200            0.0000          15.4667       PFind                   None            0.00    0.00    None
 18.7000         4.7412           0.0000          0.0000           393.33        13.32          0.0200            0.0000          39.3333       PFind                   None            0.00    0.00    None
 19.8600         4.4668           0.0000          0.0000            36.67         1.24          0.0800            0.0000           3.6667       PFind                   None            0.00    0.00    None
 20.8200         4.2630           0.0000          0.0000           360.83        12.22          0.0200            0.0000          36.0833       PFind                   None            0.00    0.00    None
 21.9800         4.0405           0.0000          0.0000           105.83         3.58          0.1000            0.0000          12.7000       PFind                   None            0.00    0.00    None
 22.9800         3.8669           0.0000          0.0000            57.50         1.95          0.1200            0.0000           2.3000       PFind                   None            0.00    0.00    None
 23.4800         3.7857           0.0000          0.0000           388.33        13.15          0.0200            0.0000          38.8333       PFind                   None            0.00    0.00    None
 24.0600         3.6957           0.0000          0.0000            43.33         1.47          0.0200            0.0000           0.0000       PFind                   None            0.00    0.00    None
 24.2600         3.6657           0.0000          0.0000            38.33         1.30          0.0600            0.0000           3.0667       PFind                   None            0.00    0.00    None
 24.5600         3.6216           0.0000          0.0000           250.83         8.50          0.1000            0.0000          35.1167       PFind                   None            0.00    0.00    None
 25.1000         3.5449           0.0000          0.0000           625.00        21.17          0.1200            0.0000          75.0000       PFind                   None            0.00    0.00    None
 25.4000         3.5037           0.0000          0.0000            81.67         2.77          0.1000            0.0000           6.5333       PFind                   None            0.00    0.00    None
 25.5800         3.4795           0.0000          0.0000            64.17         2.17          0.0800            0.0000           6.4167       PFind                   None            0.00    0.00    None
 26.5800         3.3508           0.0000          0.0000           832.50        28.20          0.0400            0.0000          99.9000       PFind                   None            0.00    0.00    None
 26.8000         3.3238           0.0000          0.0000          1144.17        38.75          0.1600            0.0000         160.1833       PFind                   None            0.00    0.00    None
 27.4600         3.2454           0.0000          0.0000           234.17         7.93          0.0800            0.0000           9.3667       PFind                   None            0.00    0.00    None
 27.8600         3.1997           0.0000          0.0000           427.50        14.48          0.0200            0.0000          68.4000       PFind                   None            0.00    0.00    None
 28.0600         3.1773           0.0000          0.0000            96.67         3.27          0.1200            0.0000          11.6000       PFind                   None            0.00    0.00    None
 28.2800         3.1531           0.0000          0.0000           240.00         8.13          0.1200            0.0000          19.2000       PFind                   None            0.00    0.00    None
 28.5200         3.1271           0.0000          0.0000            70.00         2.37          0.1200            0.0000           5.6000       PFind                   None            0.00    0.00    None
 29.8000         2.9957           0.0000          0.0000            41.67         1.41          0.1600            0.0000           6.6667       PFind                   None            0.00    0.00    None
 30.1600         2.9607           0.0000          0.0000            35.00         1.19          0.1200            0.0000           1.4000       PFind                   None            0.00    0.00    None
 31.2400         2.8608           0.0000          0.0000            48.33         1.64          0.0800            0.0000           6.7667       PFind                   None            0.00    0.00    None
 31.5400         2.8342           0.0000          0.0000           120.83         4.09          0.1000            0.0000          16.9167       PFind                   None            0.00    0.00    None
 33.4000         2.6805           0.0000          0.0000            40.00         1.35          0.0200            0.0000           3.2000       PFind                   None            0.00    0.00    None
 34.2600         2.6152           0.0000          0.0000            59.17         2.00          0.0800            0.0000           1.1833       PFind                   None            0.00    0.00    None
 34.9200         2.5673           0.0000          0.0000            45.83         1.55          0.1400            0.0000           1.8333       PFind                   None            0.00    0.00    None
 35.3600         2.5363           0.0000          0.0000            46.67         1.58          0.1600            0.0000           2.8000       PFind                   None            0.00    0.00    None
 35.4200         2.5322           0.0000          0.0000            42.50         1.44          0.0600            0.0000           6.8000       PFind                   None            0.00    0.00    None
 36.0600         2.4887           0.0000          0.0000            72.50         2.46          0.1000            0.0000          11.6000       PFind                   None            0.00    0.00    None
 36.4800         2.4610           0.0000          0.0000            83.33         2.82          0.1000            0.0000          13.3333       PFind                   None            0.00    0.00    None
 37.2800         2.4100           0.0000          0.0000            36.67         1.24          0.1600            0.0000           0.7333       PFind                   None            0.00    0.00    None
 37.5400         2.3939           0.0000          0.0000            38.33         1.30          0.0600            0.0000           3.8333       PFind                   None            0.00    0.00    None
 38.0400         2.3636           0.0000          0.0000          2952.50       100.00          0.1200            0.0000         354.3000       PFind                   None            0.00    0.00    None
 39.3800         2.2862           0.0000          0.0000            58.33         1.98          0.1000            0.0000           3.5000       PFind                   None            0.00    0.00    None
 40.2400         2.2393           0.0000          0.0000            51.67         1.75          0.1600            0.0000           3.1000       PFind                   None            0.00    0.00    None
 42.4200         2.1291           0.0000          0.0000            95.83         3.25          0.1600            0.0000           7.6667       PFind                   None            0.00    0.00    None
 44.2400         2.0456           0.0000          0.0000          1181.67        40.02          0.1000            0.0000         165.4333       PFind                   None            0.00    0.00    None
 45.5200         1.9910           0.0000          0.0000           279.17         9.46          0.0200            0.0000          44.6667       PFind                   None            0.00    0.00    None
 50.0800         1.8199           0.0000          0.0000            68.33         2.31          0.0400            0.0000           5.4667       PFind                   None            0.00    0.00    None
 50.2000         1.8158           0.0000          0.0000            55.00         1.86          0.1400            0.0000           4.4000       PFind                   None            0.00    0.00    None
 59.9200         1.5424           0.0000          0.0000           127.50         4.32          0.0600            0.0000           7.6500       PFind                   None            0.00    0.00    None
 60.1000         1.5382           0.0000          0.0000            60.00         2.03          0.1200            0.0000           6.0000       PFind                   None            0.00    0.00    None
 64.3800         1.4459           0.0000          0.0000           790.83        26.79          0.0200            0.0000          79.0833       PFind                   None            0.00    0.00    None
 64.5600         1.4423           0.0000          0.0000           483.33        16.37          0.0400            0.0000          58.0000       PFind                   None            0.00    0.00    None