File: Generating XRD fingerprints/INPUT/Detrital data/28_7_14_24_2_PF_FILTER.txt
Filename:
	C:\Program Files\Thermo Electron\WinXRD\Datafiles\FIEN\28_7_14_24_2 FILTER.pk

File Created:
	April 15, 2019 - 03:50 PM

Specimen Id:
	28.714.24 FILTRE 2 FT

Specimen Name:

Specimen Description:

Comment:
Scan Type: 2Theta Scan
Start Angle: 2 deg.
Stop Angle: 65 deg.
Num Points: 3151
Step Size: 0.02 deg.
Scan Rate: 1.000000
Scan Mode: Continuous
Wavelength: 1.540562
\Kalpha1: 1.540562	\Kalpha2: 1.544390	\Kbeta: 1.392218

Optics:
		Detector:
			 Type: Fixed Slits
		Tube:
			 Type: Fixed Slits

Datas:
Peaks:

Position        Dspace          ESD(P)          Corr.Fact       Intensity       Rel.Int.        FWHM(L)         ESD(L)          Area            Source                  Curve           Strain  CSize   CSize_Source
[deg]           [A]             [deg]           [deg]           [CPS]           [CPS]           [deg]           [deg]           [deg]           [--]                    [--]            [--]    [--]    [--]
  3.7000        23.8603           0.0000          0.0000            44.17         1.63          0.1600            0.0000           0.8833       PFind                   None            0.00    0.00    None
  3.8000        23.2326           0.0000          0.0000            51.67         1.91          0.1600            0.0000           0.0000       PFind                   None            0.00    0.00    None
  4.1400        21.3253           0.0000          0.0000            49.17         1.82          0.1000            0.0000           2.9500       PFind                   None            0.00    0.00    None
  4.4400        19.8851           0.0000          0.0000            44.17         1.63          0.1200            0.0000           3.5333       PFind                   None            0.00    0.00    None
  4.6400        19.0284           0.0000          0.0000            50.00         1.85          0.1200            0.0000           0.0000       PFind                   None            0.00    0.00    None
  4.8600        18.1675           0.0000          0.0000            32.50         1.20          0.0600            0.0000           0.6500       PFind                   None            0.00    0.00    None
  5.1400        17.1785           0.0000          0.0000            32.50         1.20          0.1400            0.0000           2.6000       PFind                   None            0.00    0.00    None
  5.3600        16.4739           0.0000          0.0000            40.00         1.48          0.0600            0.0000           0.0000       PFind                   None            0.00    0.00    None
  6.0800        14.5245           0.0000          0.0000            42.50         1.57          0.1000            0.0000           3.4000       PFind                   None            0.00    0.00    None
  6.3200        13.9735           0.0000          0.0000           123.33         4.56          0.0000            0.0000          12.3333       PFind                   None            0.00    0.00    None
  6.6400        13.3008           0.0000          0.0000            37.50         1.39          0.0400            0.0000           2.2500       PFind                   None            0.00    0.00    None
  7.0200        12.5816           0.0000          0.0000            33.33         1.23          0.0400            0.0000           0.0000       PFind                   None            0.00    0.00    None
  7.3800        11.9687           0.0000          0.0000            30.00         1.11          0.1200            0.0000           1.8000       PFind                   None            0.00    0.00    None
  7.5000        11.7774           0.0000          0.0000            30.00         1.11          0.0600            0.0000           2.4000       PFind                   None            0.00    0.00    None
  7.8200        11.2962           0.0000          0.0000            30.00         1.11          0.0600            0.0000           1.8000       PFind                   None            0.00    0.00    None
  7.8800        11.2103           0.0000          0.0000            32.50         1.20          0.0800            0.0000           0.6500       PFind                   None            0.00    0.00    None
  8.0200        11.0149           0.0000          0.0000            39.17         1.45          0.0600            0.0000           1.5667       PFind                   None            0.00    0.00    None
  8.3800        10.5425           0.0000          0.0000            33.33         1.23          0.0600            0.0000           2.0000       PFind                   None            0.00    0.00    None
  8.9600         9.8614           0.0000          0.0000           815.00        30.10          0.0200            0.0000          65.2000       PFind                   None            0.00    0.00    None
  9.2000         9.6046           0.0000          0.0000            60.00         2.22          0.1200            0.0000           0.0000       PFind                   None            0.00    0.00    None
  9.5200         9.2825           0.0000          0.0000            85.00         3.14          0.0800            0.0000           3.4000       PFind                   None            0.00    0.00    None
  9.8600         8.9632           0.0000          0.0000           100.00         3.69          0.1000            0.0000           6.0000       PFind                   None            0.00    0.00    None
 10.5800         8.3547           0.0000          0.0000            70.83         2.62          0.0800            0.0000           5.6667       PFind                   None            0.00    0.00    None
 11.1000         7.9645           0.0000          0.0000            30.00         1.11          0.0400            0.0000           1.8000       PFind                   None            0.00    0.00    None
 11.9400         7.4060           0.0000          0.0000            29.17         1.08          0.0800            0.0000           0.0000       PFind                   None            0.00    0.00    None
 12.2600         7.2134           0.0000          0.0000           440.00        16.25          0.0600            0.0000          44.0000       PFind                   None            0.00    0.00    None
 12.5800         7.0306           0.0000          0.0000           373.33        13.79          0.0200            0.0000          44.8000       PFind                   None            0.00    0.00    None
 13.9200         6.3567           0.0000          0.0000            78.33         2.89          0.0800            0.0000           4.7000       PFind                   None            0.00    0.00    None
 15.0800         5.8702           0.0000          0.0000            30.00         1.11          0.1200            0.0000           2.4000       PFind                   None            0.00    0.00    None
 17.9200         4.9458           0.0000          0.0000           440.00        16.25          0.0000            0.0000          44.0000       PFind                   None            0.00    0.00    None
 18.6200         4.7614           0.0000          0.0000            91.67         3.39          0.1400            0.0000          12.8333       PFind                   None            0.00    0.00    None
 18.8600         4.7014           0.0000          0.0000           145.83         5.39          0.0000            0.0000          20.4167       PFind                   None            0.00    0.00    None
 19.8000         4.4802           0.0000          0.0000            30.00         1.11          0.0600            0.0000           2.4000       PFind                   None            0.00    0.00    None
 20.9600         4.2348           0.0000          0.0000           786.67        29.06          0.0800            0.0000          62.9333       PFind                   None            0.00    0.00    None
 22.1600         4.0081           0.0000          0.0000           210.83         7.79          0.0800            0.0000          16.8667       PFind                   None            0.00    0.00    None
 23.1600         3.8373           0.0000          0.0000            46.67         1.72          0.0000            0.0000           3.7333       PFind                   None            0.00    0.00    None
 23.6600         3.7573           0.0000          0.0000           763.33        28.19          0.0000            0.0000          61.0667       PFind                   None            0.00    0.00    None
 23.9000         3.7201           0.0000          0.0000            36.67         1.35          0.0800            0.0000           2.2000       PFind                   None            0.00    0.00    None
 24.3200         3.6568           0.0000          0.0000            47.50         1.75          0.1600            0.0000           4.7500       PFind                   None            0.00    0.00    None
 24.7000         3.6014           0.0000          0.0000           395.83        14.62          0.0800            0.0000          55.4167       PFind                   None            0.00    0.00    None
 25.2600         3.5228           0.0000          0.0000           275.00        10.16          0.0600            0.0000          33.0000       PFind                   None            0.00    0.00    None
 25.6600         3.4688           0.0000          0.0000           135.83         5.02          0.0800            0.0000          13.5833       PFind                   None            0.00    0.00    None
 26.7200         3.3336           0.0000          0.0000          2201.67        81.32          0.0000            0.0000         220.1667       PFind                   None            0.00    0.00    None
 26.9600         3.3044           0.0000          0.0000          1337.50        49.40          0.0800            0.0000         160.5000       PFind                   None            0.00    0.00    None
 27.2800         3.2664           0.0000          0.0000            36.67         1.35          0.1000            0.0000           5.8667       PFind                   None            0.00    0.00    None
 27.6200         3.2269           0.0000          0.0000           139.17         5.14          0.0400            0.0000          16.7000       PFind                   None            0.00    0.00    None
 27.9800         3.1862           0.0000          0.0000           364.17        13.45          0.0400            0.0000          36.4167       PFind                   None            0.00    0.00    None
 28.2800         3.1531           0.0000          0.0000            66.67         2.46          0.0600            0.0000           9.3333       PFind                   None            0.00    0.00    None
 28.7000         3.1079           0.0000          0.0000           105.83         3.91          0.0600            0.0000          16.9333       PFind                   None            0.00    0.00    None
 29.8000         2.9957           0.0000          0.0000            35.83         1.32          0.0400            0.0000           0.0000       PFind                   None            0.00    0.00    None
 30.0000         2.9761           0.0000          0.0000            30.83         1.14          0.0600            0.0000           4.9333       PFind                   None            0.00    0.00    None
 30.3400         2.9436           0.0000          0.0000            39.17         1.45          0.0400            0.0000           3.1333       PFind                   None            0.00    0.00    None
 30.6200         2.9173           0.0000          0.0000            44.17         1.63          0.1000            0.0000           5.3000       PFind                   None            0.00    0.00    None
 30.9400         2.8878           0.0000          0.0000            29.17         1.08          0.0600            0.0000           2.9167       PFind                   None            0.00    0.00    None
 31.3400         2.8519           0.0000          0.0000            83.33         3.08          0.0800            0.0000          10.0000       PFind                   None            0.00    0.00    None
 31.6800         2.8220           0.0000          0.0000            53.33         1.97          0.1200            0.0000           8.5333       PFind                   None            0.00    0.00    None
 32.1800         2.7793           0.0000          0.0000            31.67         1.17          0.0600            0.0000           3.1667       PFind                   None            0.00    0.00    None
 33.6400         2.6620           0.0000          0.0000            45.00         1.66          0.0800            0.0000           6.3000       PFind                   None            0.00    0.00    None
 34.4000         2.6049           0.0000          0.0000            44.17         1.63          0.1200            0.0000           2.6500       PFind                   None            0.00    0.00    None
 34.6000         2.5903           0.0000          0.0000            34.17         1.26          0.0200            0.0000           1.3667       PFind                   None            0.00    0.00    None
 34.7000         2.5830           0.0000          0.0000            30.83         1.14          0.0800            0.0000           1.8500       PFind                   None            0.00    0.00    None
 34.8800         2.5701           0.0000          0.0000            45.83         1.69          0.1600            0.0000           1.8333       PFind                   None            0.00    0.00    None
 34.9800         2.5630           0.0000          0.0000            36.67         1.35          0.1200            0.0000           4.4000       PFind                   None            0.00    0.00    None
 35.1200         2.5531           0.0000          0.0000            34.17         1.26          0.0600            0.0000           3.4167       PFind                   None            0.00    0.00    None
 36.2000         2.4794           0.0000          0.0000           101.67         3.76          0.0800            0.0000           8.1333       PFind                   None            0.00    0.00    None
 36.6400         2.4506           0.0000          0.0000           580.00        21.42          0.0800            0.0000          23.2000       PFind                   None            0.00    0.00    None
 38.2000         2.3540           0.0000          0.0000          2707.50       100.00          0.0200            0.0000         216.6000       PFind                   None            0.00    0.00    None
 39.5600         2.2762           0.0000          0.0000            62.50         2.31          0.1000            0.0000           3.7500       PFind                   None            0.00    0.00    None
 39.6600         2.2707           0.0000          0.0000            48.33         1.79          0.1400            0.0000           0.9667       PFind                   None            0.00    0.00    None
 39.9000         2.2576           0.0000          0.0000            35.00         1.29          0.0800            0.0000           3.5000       PFind                   None            0.00    0.00    None
 40.3600         2.2329           0.0000          0.0000            56.67         2.09          0.1000            0.0000           3.4000       PFind                   None            0.00    0.00    None
 42.5600         2.1224           0.0000          0.0000           137.50         5.08          0.0600            0.0000           5.5000       PFind                   None            0.00    0.00    None
 44.3800         2.0395           0.0000          0.0000          1342.50        49.58          0.0600            0.0000         107.4000       PFind                   None            0.00    0.00    None
 45.6800         1.9844           0.0000          0.0000           539.17        19.91          0.0600            0.0000          75.4833       PFind                   None            0.00    0.00    None
 48.2600         1.8842           0.0000          0.0000           106.67         3.94          0.1200            0.0000           6.4000       PFind                   None            0.00    0.00    None
 48.4000         1.8791           0.0000          0.0000            57.50         2.12          0.1000            0.0000           3.4500       PFind                   None            0.00    0.00    None
 49.2000         1.8504           0.0000          0.0000            40.83         1.51          0.1400            0.0000           2.4500       PFind                   None            0.00    0.00    None
 49.3400         1.8455           0.0000          0.0000            33.33         1.23          0.1000            0.0000           2.6667       PFind                   None            0.00    0.00    None
 50.2400         1.8145           0.0000          0.0000           381.67        14.10          0.0600            0.0000          22.9000       PFind                   None            0.00    0.00    None
 50.6600         1.8004           0.0000          0.0000            98.33         3.63          0.1400            0.0000           5.9000       PFind                   None            0.00    0.00    None
 50.8000         1.7958           0.0000          0.0000            61.67         2.28          0.1400            0.0000           7.4000       PFind                   None            0.00    0.00    None
 54.9600         1.6693           0.0000          0.0000           120.00         4.43          0.1000            0.0000           4.8000       PFind                   None            0.00    0.00    None
 60.0600         1.5392           0.0000          0.0000           123.33         4.56          0.0600            0.0000           7.4000       PFind                   None            0.00    0.00    None
 60.2000         1.5359           0.0000          0.0000            73.33         2.71          0.0800            0.0000           4.4000       PFind                   None            0.00    0.00    None
 61.5400         1.5057           0.0000          0.0000            30.83         1.14          0.0600            0.0000           3.7000       PFind                   None            0.00    0.00    None
 64.5200         1.4431           0.0000          0.0000          1125.83        41.58          0.0000            0.0000          67.5500       PFind                   None            0.00    0.00    None
 64.6800         1.4399           0.0000          0.0000           577.50        21.33          0.1000            0.0000          46.2000       PFind                   None            0.00    0.00    None