File: Generating XRD fingerprints/INPUT/Detrital data/2_1_AUG_PF_RT.txt
Filename:
	C:\Program Files\Thermo Electron\WinXRD\Datafiles\FIEN\2_1_AUG_RT.pk

File Created:
	April 15, 2019 - 03:00 PM

Specimen Id:
	2.1 AUGUST RT

Specimen Name:

Specimen Description:

Comment:
Scan Type: 2Theta Scan
Start Angle: 1 deg.
Stop Angle: 65 deg.
Num Points: 3201
Step Size: 0.02 deg.
Scan Rate: 1.000000
Scan Mode: Continuous
Wavelength: 1.540562
\Kalpha1: 1.540562	\Kalpha2: 1.544390	\Kbeta: 1.392218

Optics:
		Detector:
			 Type: Fixed Slits
		Tube:
			 Type: Fixed Slits

Datas:
Peaks:

Position        Dspace          ESD(P)          Corr.Fact       Intensity       Rel.Int.        FWHM(L)         ESD(L)          Area            Source                  Curve           Strain  CSize   CSize_Source
[deg]           [A]             [deg]           [deg]           [CPS]           [CPS]           [deg]           [deg]           [deg]           [--]                    [--]            [--]    [--]    [--]
  2.6400        33.4377           0.0000          0.0000            61.67         3.35          0.0800            0.0000           7.4000       PFind                   None            0.00    0.00    None
  2.9800        29.6234           0.0000          0.0000            59.17         3.22          0.1000            0.0000           8.2833       PFind                   None            0.00    0.00    None
  3.1400        28.1142           0.0000          0.0000            86.67         4.71          0.0600            0.0000           1.7333       PFind                   None            0.00    0.00    None
  3.3600        26.2739           0.0000          0.0000            50.83         2.77          0.1000            0.0000           7.1167       PFind                   None            0.00    0.00    None
  3.6800        23.9899           0.0000          0.0000            51.67         2.81          0.1000            0.0000           5.1667       PFind                   None            0.00    0.00    None
  3.7600        23.4797           0.0000          0.0000            53.33         2.90          0.0600            0.0000           0.0000       PFind                   None            0.00    0.00    None
  4.0400        21.8530           0.0000          0.0000            45.00         2.45          0.1000            0.0000           6.3000       PFind                   None            0.00    0.00    None
  4.1400        21.3253           0.0000          0.0000            36.67         1.99          0.0600            0.0000           2.9333       PFind                   None            0.00    0.00    None
  4.3600        20.2498           0.0000          0.0000            41.67         2.27          0.1000            0.0000           4.1667       PFind                   None            0.00    0.00    None
  4.6400        19.0284           0.0000          0.0000            45.00         2.45          0.1000            0.0000           5.4000       PFind                   None            0.00    0.00    None
  4.9000        18.0193           0.0000          0.0000            47.50         2.58          0.1200            0.0000           0.9500       PFind                   None            0.00    0.00    None
  5.2400        16.8509           0.0000          0.0000            39.17         2.13          0.1600            0.0000           0.7833       PFind                   None            0.00    0.00    None
  5.4600        16.1724           0.0000          0.0000            50.00         2.72          0.0400            0.0000           1.0000       PFind                   None            0.00    0.00    None
  5.9000        14.9672           0.0000          0.0000            39.17         2.13          0.1000            0.0000           6.2667       PFind                   None            0.00    0.00    None
  5.9400        14.8665           0.0000          0.0000            40.83         2.22          0.0600            0.0000           2.4500       PFind                   None            0.00    0.00    None
  6.2400        14.1525           0.0000          0.0000           150.00         8.16          0.0000            0.0000          18.0000       PFind                   None            0.00    0.00    None
  6.8000        12.9882           0.0000          0.0000            41.67         2.27          0.1000            0.0000           3.3333       PFind                   None            0.00    0.00    None
  6.9000        12.8002           0.0000          0.0000            38.33         2.09          0.0800            0.0000           0.0000       PFind                   None            0.00    0.00    None
  7.0200        12.5816           0.0000          0.0000            40.83         2.22          0.1200            0.0000           3.2667       PFind                   None            0.00    0.00    None
  7.6800        11.5018           0.0000          0.0000            38.33         2.09          0.0200            0.0000           3.0667       PFind                   None            0.00    0.00    None
  7.9000        11.1820           0.0000          0.0000            34.17         1.86          0.1400            0.0000           0.6833       PFind                   None            0.00    0.00    None
  8.4600        10.4430           0.0000          0.0000            36.67         1.99          0.0200            0.0000           0.7333       PFind                   None            0.00    0.00    None
  8.8800         9.9500           0.0000          0.0000           685.00        37.26          0.1400            0.0000          54.8000       PFind                   None            0.00    0.00    None
  9.1200         9.6887           0.0000          0.0000            69.17         3.76          0.0800            0.0000           0.0000       PFind                   None            0.00    0.00    None
  9.8400         8.9813           0.0000          0.0000            35.83         1.95          0.0000            0.0000           2.1500       PFind                   None            0.00    0.00    None
 10.5800         8.3547           0.0000          0.0000            39.17         2.13          0.0800            0.0000           0.7833       PFind                   None            0.00    0.00    None
 12.2000         7.2487           0.0000          0.0000           620.00        33.73          0.1000            0.0000          37.2000       PFind                   None            0.00    0.00    None
 12.5000         7.0754           0.0000          0.0000           441.67        24.03          0.1400            0.0000          35.3333       PFind                   None            0.00    0.00    None
 13.8800         6.3749           0.0000          0.0000            35.83         1.95          0.1400            0.0000           2.8667       PFind                   None            0.00    0.00    None
 17.8400         4.9678           0.0000          0.0000           450.00        24.48          0.0000            0.0000          36.0000       PFind                   None            0.00    0.00    None
 18.5600         4.7767           0.0000          0.0000            52.50         2.86          0.1000            0.0000           5.2500       PFind                   None            0.00    0.00    None
 18.8000         4.7162           0.0000          0.0000           175.83         9.56          0.1200            0.0000          17.5833       PFind                   None            0.00    0.00    None
 19.8200         4.4757           0.0000          0.0000            98.33         5.35          0.0600            0.0000           7.8667       PFind                   None            0.00    0.00    None
 20.8800         4.2509           0.0000          0.0000           193.33        10.52          0.0200            0.0000          19.3333       PFind                   None            0.00    0.00    None
 22.0600         4.0261           0.0000          0.0000            63.33         3.45          0.1200            0.0000           6.3333       PFind                   None            0.00    0.00    None
 22.1800         4.0046           0.0000          0.0000            60.83         3.31          0.1600            0.0000           6.0833       PFind                   None            0.00    0.00    None
 23.0600         3.8537           0.0000          0.0000            45.83         2.49          0.1600            0.0000           4.5833       PFind                   None            0.00    0.00    None
 23.5400         3.7762           0.0000          0.0000           111.67         6.07          0.0200            0.0000          13.4000       PFind                   None            0.00    0.00    None
 24.2800         3.6628           0.0000          0.0000            84.17         4.58          0.0800            0.0000           6.7333       PFind                   None            0.00    0.00    None
 24.6400         3.6100           0.0000          0.0000           179.17         9.75          0.0600            0.0000          28.6667       PFind                   None            0.00    0.00    None
 24.8400         3.5814           0.0000          0.0000            64.17         3.49          0.1000            0.0000           8.9833       PFind                   None            0.00    0.00    None
 25.1600         3.5366           0.0000          0.0000           390.83        21.26          0.0800            0.0000          39.0833       PFind                   None            0.00    0.00    None
 25.5000         3.4902           0.0000          0.0000           116.67         6.35          0.0200            0.0000          14.0000       PFind                   None            0.00    0.00    None
 25.7400         3.4582           0.0000          0.0000            40.00         2.18          0.1600            0.0000           4.8000       PFind                   None            0.00    0.00    None
 26.6400         3.3434           0.0000          0.0000          1838.33       100.00          0.1200            0.0000         183.8333       PFind                   None            0.00    0.00    None
 26.8800         3.3141           0.0000          0.0000          1810.83        98.50          0.1400            0.0000         181.0833       PFind                   None            0.00    0.00    None
 27.5000         3.2408           0.0000          0.0000            67.50         3.67          0.1000            0.0000           4.0500       PFind                   None            0.00    0.00    None
 27.9200         3.1929           0.0000          0.0000           251.67        13.69          0.0200            0.0000          40.2667       PFind                   None            0.00    0.00    None
 28.3200         3.1488           0.0000          0.0000            43.33         2.36          0.1000            0.0000           5.2000       PFind                   None            0.00    0.00    None
 28.6800         3.1100           0.0000          0.0000            82.50         4.49          0.0800            0.0000           4.9500       PFind                   None            0.00    0.00    None
 29.8800         2.9878           0.0000          0.0000            55.83         3.04          0.1000            0.0000           5.5833       PFind                   None            0.00    0.00    None
 30.4600         2.9322           0.0000          0.0000            54.17         2.95          0.1200            0.0000           3.2500       PFind                   None            0.00    0.00    None
 31.2000         2.8644           0.0000          0.0000           102.50         5.58          0.0000            0.0000          10.2500       PFind                   None            0.00    0.00    None
 31.6400         2.8255           0.0000          0.0000            63.33         3.45          0.1000            0.0000           6.3333       PFind                   None            0.00    0.00    None
 33.8400         2.6467           0.0000          0.0000            56.67         3.08          0.1000            0.0000           2.2667       PFind                   None            0.00    0.00    None
 34.3400         2.6093           0.0000          0.0000           117.50         6.39          0.0800            0.0000           4.7000       PFind                   None            0.00    0.00    None
 34.5800         2.5917           0.0000          0.0000            66.67         3.63          0.1000            0.0000           8.0000       PFind                   None            0.00    0.00    None
 35.0000         2.5616           0.0000          0.0000            73.33         3.99          0.1000            0.0000          11.7333       PFind                   None            0.00    0.00    None
 35.3600         2.5363           0.0000          0.0000           121.67         6.62          0.0800            0.0000          12.1667       PFind                   None            0.00    0.00    None
 36.1200         2.4847           0.0000          0.0000           191.67        10.43          0.1600            0.0000          19.1667       PFind                   None            0.00    0.00    None
 36.5400         2.4571           0.0000          0.0000           170.83         9.29          0.0800            0.0000          17.0833       PFind                   None            0.00    0.00    None
 37.4600         2.3988           0.0000          0.0000            39.17         2.13          0.1200            0.0000           3.9167       PFind                   None            0.00    0.00    None
 37.7600         2.3804           0.0000          0.0000            55.00         2.99          0.0600            0.0000           5.5000       PFind                   None            0.00    0.00    None
 38.2200         2.3528           0.0000          0.0000            54.17         2.95          0.1600            0.0000           4.3333       PFind                   None            0.00    0.00    None
 38.8000         2.3190           0.0000          0.0000            35.00         1.90          0.0600            0.0000           0.7000       PFind                   None            0.00    0.00    None
 39.4400         2.2828           0.0000          0.0000           103.33         5.62          0.0800            0.0000          12.4000       PFind                   None            0.00    0.00    None
 40.3000         2.2361           0.0000          0.0000            60.00         3.26          0.1400            0.0000           3.6000       PFind                   None            0.00    0.00    None
 42.4800         2.1262           0.0000          0.0000            75.83         4.13          0.0800            0.0000          12.1333       PFind                   None            0.00    0.00    None
 43.6200         2.0733           0.0000          0.0000            48.33         2.63          0.0400            0.0000           6.7667       PFind                   None            0.00    0.00    None
 43.7800         2.0661           0.0000          0.0000            38.33         2.09          0.0600            0.0000           4.6000       PFind                   None            0.00    0.00    None
 44.5200         2.0334           0.0000          0.0000            95.00         5.17          0.0200            0.0000          15.2000       PFind                   None            0.00    0.00    None
 44.8000         2.0214           0.0000          0.0000            56.67         3.08          0.1200            0.0000           6.8000       PFind                   None            0.00    0.00    None
 45.6000         1.9877           0.0000          0.0000          1483.33        80.69          0.0200            0.0000         118.6667       PFind                   None            0.00    0.00    None
 48.1600         1.8879           0.0000          0.0000            51.67         2.81          0.0600            0.0000           5.1667       PFind                   None            0.00    0.00    None
 48.2400         1.8849           0.0000          0.0000            37.50         2.04          0.0800            0.0000           6.0000       PFind                   None            0.00    0.00    None
 49.8000         1.8295           0.0000          0.0000            35.83         1.95          0.0400            0.0000           4.3000       PFind                   None            0.00    0.00    None
 50.1400         1.8179           0.0000          0.0000           260.00        14.14          0.1200            0.0000          20.8000       PFind                   None            0.00    0.00    None
 50.6400         1.8011           0.0000          0.0000            35.00         1.90          0.0600            0.0000           2.1000       PFind                   None            0.00    0.00    None
 51.6600         1.7679           0.0000          0.0000            38.33         2.09          0.0800            0.0000           0.7667       PFind                   None            0.00    0.00    None
 52.1200         1.7534           0.0000          0.0000            40.00         2.18          0.1200            0.0000           3.2000       PFind                   None            0.00    0.00    None
 52.2200         1.7503           0.0000          0.0000            33.33         1.81          0.1200            0.0000           2.6667       PFind                   None            0.00    0.00    None
 54.3400         1.6869           0.0000          0.0000            40.00         2.18          0.1400            0.0000           0.8000       PFind                   None            0.00    0.00    None
 54.8600         1.6721           0.0000          0.0000            72.50         3.94          0.1000            0.0000           4.3500       PFind                   None            0.00    0.00    None
 55.4400         1.6560           0.0000          0.0000            40.00         2.18          0.1600            0.0000           5.6000       PFind                   None            0.00    0.00    None
 55.5800         1.6521           0.0000          0.0000            40.83         2.22          0.0200            0.0000           1.6333       PFind                   None            0.00    0.00    None
 55.8200         1.6456           0.0000          0.0000            58.33         3.17          0.1200            0.0000           8.1667       PFind                   None            0.00    0.00    None
 59.2200         1.5590           0.0000          0.0000            38.33         2.09          0.1200            0.0000           0.0000       PFind                   None            0.00    0.00    None
 59.9400         1.5420           0.0000          0.0000           356.67        19.40          0.1000            0.0000          21.4000       PFind                   None            0.00    0.00    None
 60.1000         1.5382           0.0000          0.0000           202.50        11.02          0.0200            0.0000          12.1500       PFind                   None            0.00    0.00    None
 61.5000         1.5065           0.0000          0.0000            40.83         2.22          0.0800            0.0000           5.7167       PFind                   None            0.00    0.00    None
 64.0200         1.4532           0.0000          0.0000            35.83         1.95          0.1400            0.0000           4.3000       PFind                   None            0.00    0.00    None