File: Generating XRD fingerprints/INPUT/Detrital data/4A_pf_FT.txt
Filename:
	C:\Program Files\Thermo Electron\WinXRD\Datafiles\FIEN2\FIEN\4A_FT.pk

File Created:
	February 25, 2021 - 10:41 AM

Specimen Id:
	4A FT

Specimen Name:

Specimen Description:

Comment:
Scan Type: 2Theta Scan
Start Angle: 1 deg.
Stop Angle: 65 deg.
Num Points: 3201
Step Size: 0.02 deg.
Scan Rate: 1.000000
Scan Mode: Continuous
Wavelength: 1.540562
\Kalpha1: 1.540562	\Kalpha2: 1.544390	\Kbeta: 1.392218

Optics:
		Detector:
			 Type: Fixed Slits
		Tube:
			 Type: Fixed Slits

Datas:
Peaks:

Position        Dspace          ESD(P)          Corr.Fact       Intensity       Rel.Int.        FWHM(L)         ESD(L)          Area            Source                  Curve           Strain  CSize   CSize_Source
[deg]           [A]             [deg]           [deg]           [CPS]           [CPS]           [deg]           [deg]           [deg]           [--]                    [--]            [--]    [--]    [--]
  2.7400        32.2176           0.0000          0.0000           123.33         8.00          0.0800            0.0000          12.3333       PFind                   None            0.00    0.00    None
  2.8200        31.3038           0.0000          0.0000           103.33         6.70          0.1200            0.0000          16.5333       PFind                   None            0.00    0.00    None
  3.1200        28.2944           0.0000          0.0000            70.00         4.54          0.1600            0.0000          11.2000       PFind                   None            0.00    0.00    None
  3.2200        27.4159           0.0000          0.0000            83.33         5.40          0.1200            0.0000           8.3333       PFind                   None            0.00    0.00    None
  3.5200        25.0800           0.0000          0.0000            75.00         4.86          0.0800            0.0000           0.0000       PFind                   None            0.00    0.00    None
  3.6800        23.9899           0.0000          0.0000            85.83         5.56          0.1000            0.0000           6.8667       PFind                   None            0.00    0.00    None
  3.7800        23.3555           0.0000          0.0000            74.17         4.81          0.1200            0.0000          10.3833       PFind                   None            0.00    0.00    None
  3.8800        22.7538           0.0000          0.0000            86.67         5.62          0.0000            0.0000           6.9333       PFind                   None            0.00    0.00    None
  4.0600        21.7454           0.0000          0.0000            72.50         4.70          0.0400            0.0000           7.2500       PFind                   None            0.00    0.00    None
  4.1600        21.2229           0.0000          0.0000            89.17         5.78          0.0400            0.0000           1.7833       PFind                   None            0.00    0.00    None
  4.4000        20.0658           0.0000          0.0000            77.50         5.02          0.0000            0.0000           6.2000       PFind                   None            0.00    0.00    None
  4.5800        19.2776           0.0000          0.0000            70.83         4.59          0.1600            0.0000           0.0000       PFind                   None            0.00    0.00    None
  4.7400        18.6272           0.0000          0.0000            64.17         4.16          0.1400            0.0000           1.2833       PFind                   None            0.00    0.00    None
  4.8200        18.3182           0.0000          0.0000            65.00         4.21          0.1200            0.0000           1.3000       PFind                   None            0.00    0.00    None
  4.9600        17.8015           0.0000          0.0000            75.83         4.92          0.1200            0.0000           0.0000       PFind                   None            0.00    0.00    None
  5.2000        16.9804           0.0000          0.0000            45.00         2.92          0.0600            0.0000           4.5000       PFind                   None            0.00    0.00    None
  5.4000        16.3519           0.0000          0.0000            70.83         4.59          0.1000            0.0000           0.0000       PFind                   None            0.00    0.00    None
  5.8800        15.0181           0.0000          0.0000           127.50         8.27          0.0800            0.0000          20.4000       PFind                   None            0.00    0.00    None
  6.1200        14.4297           0.0000          0.0000           187.50        12.16          0.1600            0.0000          30.0000       PFind                   None            0.00    0.00    None
  6.4000        13.7990           0.0000          0.0000            66.67         4.32          0.1600            0.0000           8.0000       PFind                   None            0.00    0.00    None
  6.5200        13.5453           0.0000          0.0000            60.83         3.94          0.1200            0.0000           8.5167       PFind                   None            0.00    0.00    None
  6.6800        13.2212           0.0000          0.0000            65.83         4.27          0.1200            0.0000           9.2167       PFind                   None            0.00    0.00    None
  6.7800        13.0264           0.0000          0.0000            57.50         3.73          0.0400            0.0000           8.0500       PFind                   None            0.00    0.00    None
  6.9000        12.8002           0.0000          0.0000            42.50         2.76          0.1600            0.0000           1.7000       PFind                   None            0.00    0.00    None
  7.1600        12.3359           0.0000          0.0000            50.00         3.24          0.1600            0.0000           4.0000       PFind                   None            0.00    0.00    None
  7.3000        12.0996           0.0000          0.0000            45.00         2.92          0.1600            0.0000           4.5000       PFind                   None            0.00    0.00    None
  7.3800        11.9687           0.0000          0.0000            37.50         2.43          0.1200            0.0000           0.7500       PFind                   None            0.00    0.00    None
  7.5600        11.6841           0.0000          0.0000            46.67         3.03          0.1400            0.0000           0.9333       PFind                   None            0.00    0.00    None
  7.6600        11.5318           0.0000          0.0000            39.17         2.54          0.0600            0.0000           1.5667       PFind                   None            0.00    0.00    None
  7.9200        11.1538           0.0000          0.0000            46.67         3.03          0.0800            0.0000           0.9333       PFind                   None            0.00    0.00    None
  8.2800        10.6696           0.0000          0.0000            59.17         3.84          0.0400            0.0000           8.2833       PFind                   None            0.00    0.00    None
  8.8000        10.0403           0.0000          0.0000           431.67        27.98          0.0800            0.0000          51.8000       PFind                   None            0.00    0.00    None
  9.2000         9.6046           0.0000          0.0000            51.67         3.35          0.0600            0.0000           7.2333       PFind                   None            0.00    0.00    None
  9.3400         9.4610           0.0000          0.0000           119.17         7.73          0.0400            0.0000           9.5333       PFind                   None            0.00    0.00    None
  9.5600         9.2437           0.0000          0.0000            40.83         2.65          0.0800            0.0000           3.2667       PFind                   None            0.00    0.00    None
  9.7200         9.0919           0.0000          0.0000            46.67         3.03          0.1600            0.0000           3.7333       PFind                   None            0.00    0.00    None
 10.0400         8.8029           0.0000          0.0000            31.67         2.05          0.0800            0.0000           1.2667       PFind                   None            0.00    0.00    None
 10.4400         8.4665           0.0000          0.0000           166.67        10.80          0.1400            0.0000          13.3333       PFind                   None            0.00    0.00    None
 10.6600         8.2922           0.0000          0.0000            30.83         2.00          0.0400            0.0000           2.4667       PFind                   None            0.00    0.00    None
 10.8600         8.1400           0.0000          0.0000            30.83         2.00          0.1000            0.0000           2.4667       PFind                   None            0.00    0.00    None
 11.3200         7.8102           0.0000          0.0000            45.00         2.92          0.1600            0.0000           0.0000       PFind                   None            0.00    0.00    None
 11.6400         7.5962           0.0000          0.0000            45.83         2.97          0.0600            0.0000           1.8333       PFind                   None            0.00    0.00    None
 12.1000         7.3084           0.0000          0.0000          1084.17        70.29          0.1600            0.0000         130.1000       PFind                   None            0.00    0.00    None
 12.4000         7.1323           0.0000          0.0000           481.67        31.23          0.0800            0.0000          67.4333       PFind                   None            0.00    0.00    None
 12.7600         6.9318           0.0000          0.0000            35.00         2.27          0.0400            0.0000           2.8000       PFind                   None            0.00    0.00    None
 13.8000         6.4117           0.0000          0.0000            56.67         3.67          0.1400            0.0000           6.8000       PFind                   None            0.00    0.00    None
 14.3400         6.1714           0.0000          0.0000            32.50         2.11          0.0800            0.0000           0.0000       PFind                   None            0.00    0.00    None
 14.9400         5.9249           0.0000          0.0000            33.33         2.16          0.0400            0.0000           2.6667       PFind                   None            0.00    0.00    None
 14.9800         5.9092           0.0000          0.0000            34.17         2.22          0.0200            0.0000           0.6833       PFind                   None            0.00    0.00    None
 15.3400         5.7713           0.0000          0.0000            30.00         1.94          0.0800            0.0000           0.0000       PFind                   None            0.00    0.00    None
 15.6000         5.6757           0.0000          0.0000            31.67         2.05          0.1600            0.0000           2.5333       PFind                   None            0.00    0.00    None
 15.7600         5.6184           0.0000          0.0000            30.83         2.00          0.1400            0.0000           1.2333       PFind                   None            0.00    0.00    None
 16.5800         5.3424           0.0000          0.0000            30.00         1.94          0.0800            0.0000           0.0000       PFind                   None            0.00    0.00    None
 17.5200         5.0578           0.0000          0.0000            31.67         2.05          0.0800            0.0000           3.1667       PFind                   None            0.00    0.00    None
 17.7400         4.9956           0.0000          0.0000           183.33        11.89          0.1400            0.0000          22.0000       PFind                   None            0.00    0.00    None
 18.4800         4.7972           0.0000          0.0000           136.67         8.86          0.0200            0.0000          13.6667       PFind                   None            0.00    0.00    None
 18.7000         4.7412           0.0000          0.0000           210.00        13.61          0.1000            0.0000          29.4000       PFind                   None            0.00    0.00    None
 19.1000         4.6428           0.0000          0.0000            36.67         2.38          0.0800            0.0000           0.0000       PFind                   None            0.00    0.00    None
 19.6200         4.5209           0.0000          0.0000            70.00         4.54          0.1400            0.0000           8.4000       PFind                   None            0.00    0.00    None
 19.8400         4.4713           0.0000          0.0000            39.17         2.54          0.1600            0.0000           4.7000       PFind                   None            0.00    0.00    None
 20.7800         4.2711           0.0000          0.0000           344.17        22.31          0.1000            0.0000          27.5333       PFind                   None            0.00    0.00    None
 21.9800         4.0405           0.0000          0.0000           241.67        15.67          0.0200            0.0000          29.0000       PFind                   None            0.00    0.00    None
 22.3600         3.9727           0.0000          0.0000            30.00         1.94          0.0800            0.0000           1.2000       PFind                   None            0.00    0.00    None
 22.7800         3.9004           0.0000          0.0000            60.83         3.94          0.0800            0.0000           8.5167       PFind                   None            0.00    0.00    None
 22.9800         3.8669           0.0000          0.0000            60.00         3.89          0.1600            0.0000           3.6000       PFind                   None            0.00    0.00    None
 23.5000         3.7825           0.0000          0.0000           241.67        15.67          0.0000            0.0000          24.1667       PFind                   None            0.00    0.00    None
 24.1800         3.6777           0.0000          0.0000           111.67         7.24          0.1200            0.0000          17.8667       PFind                   None            0.00    0.00    None
 24.5400         3.6245           0.0000          0.0000           832.50        53.97          0.1600            0.0000         133.2000       PFind                   None            0.00    0.00    None
 25.0800         3.5477           0.0000          0.0000           434.17        28.15          0.1400            0.0000          60.7833       PFind                   None            0.00    0.00    None
 25.4400         3.4983           0.0000          0.0000           122.50         7.94          0.0800            0.0000          19.6000       PFind                   None            0.00    0.00    None
 26.5600         3.3533           0.0000          0.0000          1542.50       100.00          0.1000            0.0000         185.1000       PFind                   None            0.00    0.00    None
 26.8000         3.3238           0.0000          0.0000           635.00        41.17          0.0000            0.0000         101.6000       PFind                   None            0.00    0.00    None
 27.4200         3.2500           0.0000          0.0000           220.00        14.26          0.0000            0.0000          26.4000       PFind                   None            0.00    0.00    None
 27.8400         3.2019           0.0000          0.0000           672.50        43.60          0.1000            0.0000          94.1500       PFind                   None            0.00    0.00    None
 28.2200         3.1597           0.0000          0.0000           116.67         7.56          0.0800            0.0000          14.0000       PFind                   None            0.00    0.00    None
 28.5200         3.1271           0.0000          0.0000           185.83        12.05          0.1200            0.0000          26.0167       PFind                   None            0.00    0.00    None
 29.8000         2.9957           0.0000          0.0000           158.33        10.26          0.1400            0.0000          25.3333       PFind                   None            0.00    0.00    None
 30.1600         2.9607           0.0000          0.0000            96.67         6.27          0.0000            0.0000           7.7333       PFind                   None            0.00    0.00    None
 30.4200         2.9360           0.0000          0.0000           142.50         9.24          0.0200            0.0000          17.1000       PFind                   None            0.00    0.00    None
 30.7800         2.9025           0.0000          0.0000           205.00        13.29          0.0000            0.0000          20.5000       PFind                   None            0.00    0.00    None
 31.1600         2.8679           0.0000          0.0000           155.00        10.05          0.0400            0.0000          24.8000       PFind                   None            0.00    0.00    None
 31.5000         2.8378           0.0000          0.0000            89.17         5.78          0.0800            0.0000          14.2667       PFind                   None            0.00    0.00    None
 32.1400         2.7827           0.0000          0.0000            95.00         6.16          0.0800            0.0000           9.5000       PFind                   None            0.00    0.00    None
 33.0000         2.7121           0.0000          0.0000            70.00         4.54          0.1600            0.0000           9.8000       PFind                   None            0.00    0.00    None
 33.3000         2.6884           0.0000          0.0000            35.83         2.32          0.0800            0.0000           1.4333       PFind                   None            0.00    0.00    None
 33.8600         2.6452           0.0000          0.0000           116.67         7.56          0.0800            0.0000           4.6667       PFind                   None            0.00    0.00    None
 34.4000         2.6049           0.0000          0.0000            94.17         6.10          0.0200            0.0000          13.1833       PFind                   None            0.00    0.00    None
 34.5400         2.5946           0.0000          0.0000           110.00         7.13          0.1400            0.0000          11.0000       PFind                   None            0.00    0.00    None
 34.9200         2.5673           0.0000          0.0000           115.83         7.51          0.0000            0.0000          18.5333       PFind                   None            0.00    0.00    None
 35.4800         2.5280           0.0000          0.0000           201.67        13.07          0.1600            0.0000          32.2667       PFind                   None            0.00    0.00    None
 36.0000         2.4927           0.0000          0.0000            60.00         3.89          0.1600            0.0000           6.0000       PFind                   None            0.00    0.00    None
 36.4600         2.4623           0.0000          0.0000           230.83        14.96          0.0200            0.0000          13.8500       PFind                   None            0.00    0.00    None
 37.3400         2.4062           0.0000          0.0000            90.00         5.83          0.0000            0.0000          10.8000       PFind                   None            0.00    0.00    None
 37.5200         2.3951           0.0000          0.0000            76.67         4.97          0.1200            0.0000          12.2667       PFind                   None            0.00    0.00    None
 38.0000         2.3660           0.0000          0.0000           153.33         9.94          0.0800            0.0000           9.2000       PFind                   None            0.00    0.00    None
 38.3800         2.3434           0.0000          0.0000            37.50         2.43          0.0400            0.0000           1.5000       PFind                   None            0.00    0.00    None
 38.5000         2.3364           0.0000          0.0000            32.50         2.11          0.1600            0.0000           3.2500       PFind                   None            0.00    0.00    None
 38.7400         2.3225           0.0000          0.0000            48.33         3.13          0.0600            0.0000           6.7667       PFind                   None            0.00    0.00    None
 39.4000         2.2851           0.0000          0.0000           147.50         9.56          0.0200            0.0000           8.8500       PFind                   None            0.00    0.00    None
 40.2000         2.2414           0.0000          0.0000            62.50         4.05          0.1600            0.0000           6.2500       PFind                   None            0.00    0.00    None
 41.1800         2.1903           0.0000          0.0000            32.50         2.11          0.1200            0.0000           0.6500       PFind                   None            0.00    0.00    None
 41.6600         2.1662           0.0000          0.0000           130.83         8.48          0.1400            0.0000          20.9333       PFind                   None            0.00    0.00    None
 41.8600         2.1563           0.0000          0.0000           130.00         8.43          0.1200            0.0000          10.4000       PFind                   None            0.00    0.00    None
 42.3800         2.1310           0.0000          0.0000           141.67         9.18          0.0400            0.0000          19.8333       PFind                   None            0.00    0.00    None
 44.2000         2.0474           0.0000          0.0000           105.83         6.86          0.0800            0.0000           6.3500       PFind                   None            0.00    0.00    None
 44.8800         2.0179           0.0000          0.0000            71.67         4.65          0.1400            0.0000          11.4667       PFind                   None            0.00    0.00    None
 45.0200         2.0120           0.0000          0.0000            60.00         3.89          0.1000            0.0000           9.6000       PFind                   None            0.00    0.00    None
 45.4800         1.9927           0.0000          0.0000           246.67        15.99          0.0800            0.0000          39.4667       PFind                   None            0.00    0.00    None
 46.5000         1.9513           0.0000          0.0000            30.00         1.94          0.0600            0.0000           1.8000       PFind                   None            0.00    0.00    None
 47.1000         1.9279           0.0000          0.0000            34.17         2.22          0.1000            0.0000           1.3667       PFind                   None            0.00    0.00    None
 48.2000         1.8864           0.0000          0.0000            55.00         3.57          0.1600            0.0000           8.8000       PFind                   None            0.00    0.00    None
 48.2600         1.8842           0.0000          0.0000            49.17         3.19          0.0400            0.0000           7.8667       PFind                   None            0.00    0.00    None
 48.4400         1.8776           0.0000          0.0000            46.67         3.03          0.0200            0.0000           2.8000       PFind                   None            0.00    0.00    None
 48.6000         1.8718           0.0000          0.0000            39.17         2.54          0.1200            0.0000           5.4833       PFind                   None            0.00    0.00    None
 49.1400         1.8525           0.0000          0.0000            40.83         2.65          0.1400            0.0000           3.2667       PFind                   None            0.00    0.00    None
 49.8800         1.8267           0.0000          0.0000            54.17         3.51          0.1600            0.0000           8.6667       PFind                   None            0.00    0.00    None
 50.0600         1.8206           0.0000          0.0000           266.67        17.29          0.0200            0.0000          21.3333       PFind                   None            0.00    0.00    None
 50.6200         1.8018           0.0000          0.0000            48.33         3.13          0.1400            0.0000           7.7333       PFind                   None            0.00    0.00    None
 50.6600         1.8004           0.0000          0.0000            50.00         3.24          0.1200            0.0000           6.0000       PFind                   None            0.00    0.00    None
 51.0600         1.7873           0.0000          0.0000            70.83         4.59          0.0600            0.0000           8.5000       PFind                   None            0.00    0.00    None
 51.1400         1.7847           0.0000          0.0000            65.00         4.21          0.1400            0.0000          10.4000       PFind                   None            0.00    0.00    None
 52.1000         1.7540           0.0000          0.0000            79.17         5.13          0.1400            0.0000           4.7500       PFind                   None            0.00    0.00    None
 52.1800         1.7515           0.0000          0.0000            40.00         2.59          0.1600            0.0000           6.4000       PFind                   None            0.00    0.00    None
 52.4200         1.7440           0.0000          0.0000            69.17         4.48          0.1200            0.0000           2.7667       PFind                   None            0.00    0.00    None
 53.1200         1.7227           0.0000          0.0000            37.50         2.43          0.1600            0.0000           4.5000       PFind                   None            0.00    0.00    None
 54.8000         1.6738           0.0000          0.0000           114.17         7.40          0.0400            0.0000           9.1333       PFind                   None            0.00    0.00    None
 54.9400         1.6699           0.0000          0.0000            79.17         5.13          0.1000            0.0000           6.3333       PFind                   None            0.00    0.00    None
 55.2400         1.6615           0.0000          0.0000            45.00         2.92          0.1600            0.0000           3.6000       PFind                   None            0.00    0.00    None
 55.5200         1.6538           0.0000          0.0000            30.83         2.00          0.1000            0.0000           1.2333       PFind                   None            0.00    0.00    None
 55.7600         1.6472           0.0000          0.0000           129.17         8.37          0.1400            0.0000          15.5000       PFind                   None            0.00    0.00    None
 56.1600         1.6364           0.0000          0.0000            43.33         2.81          0.0400            0.0000           4.3333       PFind                   None            0.00    0.00    None
 56.5000         1.6274           0.0000          0.0000            59.17         3.84          0.1400            0.0000           1.1833       PFind                   None            0.00    0.00    None
 56.6400         1.6237           0.0000          0.0000            40.00         2.59          0.0800            0.0000           4.0000       PFind                   None            0.00    0.00    None
 58.0800         1.5868           0.0000          0.0000            32.50         2.11          0.0400            0.0000           1.3000       PFind                   None            0.00    0.00    None
 58.5400         1.5755           0.0000          0.0000            39.17         2.54          0.1200            0.0000           3.1333       PFind                   None            0.00    0.00    None
 58.7200         1.5711           0.0000          0.0000            29.17         1.89          0.0800            0.0000           1.1667       PFind                   None            0.00    0.00    None
 59.0800         1.5623           0.0000          0.0000            40.83         2.65          0.0600            0.0000           4.9000       PFind                   None            0.00    0.00    None
 59.2400         1.5585           0.0000          0.0000            30.00         1.94          0.1600            0.0000           4.8000       PFind                   None            0.00    0.00    None
 59.9000         1.5429           0.0000          0.0000           149.17         9.67          0.1000            0.0000          11.9333       PFind                   None            0.00    0.00    None
 60.2000         1.5359           0.0000          0.0000            33.33         2.16          0.1000            0.0000           0.0000       PFind                   None            0.00    0.00    None
 60.5200         1.5286           0.0000          0.0000            34.17         2.22          0.1200            0.0000           2.7333       PFind                   None            0.00    0.00    None
 60.7200         1.5240           0.0000          0.0000            55.83         3.62          0.1000            0.0000           8.9333       PFind                   None            0.00    0.00    None
 60.8800         1.5204           0.0000          0.0000            47.50         3.08          0.1000            0.0000           3.8000       PFind                   None            0.00    0.00    None
 60.9800         1.5181           0.0000          0.0000            35.00         2.27          0.0800            0.0000           3.5000       PFind                   None            0.00    0.00    None
 61.4200         1.5083           0.0000          0.0000            49.17         3.19          0.0600            0.0000           6.8833       PFind                   None            0.00    0.00    None
 61.5400         1.5057           0.0000          0.0000            53.33         3.46          0.1000            0.0000           5.3333       PFind                   None            0.00    0.00    None
 61.6800         1.5026           0.0000          0.0000            48.33         3.13          0.1000            0.0000           1.9333       PFind                   None            0.00    0.00    None
 61.8600         1.4986           0.0000          0.0000            40.00         2.59          0.1600            0.0000           6.4000       PFind                   None            0.00    0.00    None
 62.5800         1.4831           0.0000          0.0000            32.50         2.11          0.0800            0.0000           1.9500       PFind                   None            0.00    0.00    None
 63.7400         1.4589           0.0000          0.0000            31.67         2.05          0.0000            0.0000           2.5333       PFind                   None            0.00    0.00    None
 63.9800         1.4540           0.0000          0.0000            41.67         2.70          0.1600            0.0000           3.3333       PFind                   None            0.00    0.00    None
 64.3200         1.4471           0.0000          0.0000           117.50         7.62          0.0800            0.0000           9.4000       PFind                   None            0.00    0.00    None
 64.5000         1.4435           0.0000          0.0000            59.17         3.84          0.1000            0.0000           4.7333       PFind                   None            0.00    0.00    None