File: Generating XRD fingerprints/INPUT/Detrital data/G14_A_BIS_pf_RT.txt
Filename:
	C:\Program Files\Thermo Electron\WinXRD\Datafiles\FIEN2\FIEN\G14_A_BIS_RT.pk

File Created:
	February 25, 2021 - 10:43 AM

Specimen Id:
	G14 A RT

Specimen Name:

Specimen Description:

Comment:
Scan Type: 2Theta Scan
Start Angle: 3 deg.
Stop Angle: 65 deg.
Num Points: 3101
Step Size: 0.02 deg.
Scan Rate: 1.000000
Scan Mode: Continuous
Wavelength: 1.540562
\Kalpha1: 1.540562	\Kalpha2: 1.544390	\Kbeta: 1.392218

Optics:
		Detector:
			 Type: Fixed Slits
		Tube:
			 Type: Fixed Slits

Datas:
Peaks:

Position        Dspace          ESD(P)          Corr.Fact       Intensity       Rel.Int.        FWHM(L)         ESD(L)          Area            Source                  Curve           Strain  CSize   CSize_Source
[deg]           [A]             [deg]           [deg]           [CPS]           [CPS]           [deg]           [deg]           [deg]           [--]                    [--]            [--]    [--]    [--]
  4.6800        18.8659           0.0000          0.0000            60.00         3.24          0.0800            0.0000           2.4000       PFind                   None            0.00    0.00    None
  4.8800        18.0931           0.0000          0.0000            48.33         2.61          0.1200            0.0000           3.8667       PFind                   None            0.00    0.00    None
  5.0000        17.6591           0.0000          0.0000            60.83         3.28          0.1200            0.0000           3.6500       PFind                   None            0.00    0.00    None
  5.1000        17.3131           0.0000          0.0000            73.33         3.96          0.0400            0.0000           4.4000       PFind                   None            0.00    0.00    None
  5.3800        16.4127           0.0000          0.0000            50.00         2.70          0.1000            0.0000           6.0000       PFind                   None            0.00    0.00    None
  5.7800        15.2777           0.0000          0.0000            68.33         3.69          0.0200            0.0000           2.7333       PFind                   None            0.00    0.00    None
  6.1400        14.3827           0.0000          0.0000           157.50         8.49          0.1000            0.0000          18.9000       PFind                   None            0.00    0.00    None
  6.3800        13.8422           0.0000          0.0000            61.67         3.33          0.1000            0.0000           6.1667       PFind                   None            0.00    0.00    None
  6.7800        13.0264           0.0000          0.0000            64.17         3.46          0.0200            0.0000           3.8500       PFind                   None            0.00    0.00    None
  6.9600        12.6899           0.0000          0.0000            40.00         2.16          0.0000            0.0000           3.2000       PFind                   None            0.00    0.00    None
  7.1000        12.4400           0.0000          0.0000            59.17         3.19          0.0200            0.0000           2.3667       PFind                   None            0.00    0.00    None
  7.2400        12.1998           0.0000          0.0000            36.67         1.98          0.0000            0.0000           0.7333       PFind                   None            0.00    0.00    None
  7.3200        12.0666           0.0000          0.0000            48.33         2.61          0.0800            0.0000           3.8667       PFind                   None            0.00    0.00    None
  7.6600        11.5318           0.0000          0.0000            45.00         2.43          0.1000            0.0000           3.6000       PFind                   None            0.00    0.00    None
  7.9800        11.0701           0.0000          0.0000            46.67         2.52          0.1200            0.0000           2.8000       PFind                   None            0.00    0.00    None
  8.0600        10.9604           0.0000          0.0000            39.17         2.11          0.0800            0.0000           1.5667       PFind                   None            0.00    0.00    None
  8.1600        10.8263           0.0000          0.0000            38.33         2.07          0.1600            0.0000           3.8333       PFind                   None            0.00    0.00    None
  8.7800        10.0631           0.0000          0.0000           814.17        43.91          0.0800            0.0000          65.1333       PFind                   None            0.00    0.00    None
  9.1000         9.7099           0.0000          0.0000            59.17         3.19          0.1000            0.0000           5.9167       PFind                   None            0.00    0.00    None
  9.3600         9.4408           0.0000          0.0000            52.50         2.83          0.1400            0.0000           4.2000       PFind                   None            0.00    0.00    None
  9.5200         9.2825           0.0000          0.0000            40.83         2.20          0.1000            0.0000           5.7167       PFind                   None            0.00    0.00    None
  9.7000         9.1106           0.0000          0.0000            32.50         1.75          0.1600            0.0000           1.9500       PFind                   None            0.00    0.00    None
  9.8800         8.9451           0.0000          0.0000            39.17         2.11          0.1400            0.0000           0.0000       PFind                   None            0.00    0.00    None
 10.0400         8.8029           0.0000          0.0000            38.33         2.07          0.1600            0.0000           4.6000       PFind                   None            0.00    0.00    None
 10.2000         8.6651           0.0000          0.0000            30.83         1.66          0.0600            0.0000           4.3167       PFind                   None            0.00    0.00    None
 10.4600         8.4503           0.0000          0.0000            63.33         3.42          0.1200            0.0000           7.6000       PFind                   None            0.00    0.00    None
 10.8000         8.1850           0.0000          0.0000            37.50         2.02          0.1400            0.0000           3.0000       PFind                   None            0.00    0.00    None
 10.9000         8.1102           0.0000          0.0000            30.83         1.66          0.1200            0.0000           4.3167       PFind                   None            0.00    0.00    None
 11.2400         7.8656           0.0000          0.0000            32.50         1.75          0.1600            0.0000           1.3000       PFind                   None            0.00    0.00    None
 11.6600         7.5832           0.0000          0.0000            25.83         1.39          0.0400            0.0000           0.5167       PFind                   None            0.00    0.00    None
 12.1000         7.3084           0.0000          0.0000           322.50        17.39          0.1200            0.0000          25.8000       PFind                   None            0.00    0.00    None
 12.4200         7.1208           0.0000          0.0000           324.17        17.48          0.0400            0.0000          38.9000       PFind                   None            0.00    0.00    None
 12.8200         6.8995           0.0000          0.0000            34.17         1.84          0.1600            0.0000           0.0000       PFind                   None            0.00    0.00    None
 13.0200         6.7940           0.0000          0.0000            26.67         1.44          0.0200            0.0000           0.5333       PFind                   None            0.00    0.00    None
 13.2200         6.6917           0.0000          0.0000            24.17         1.30          0.0200            0.0000           0.0000       PFind                   None            0.00    0.00    None
 13.3200         6.6417           0.0000          0.0000            25.00         1.35          0.1200            0.0000           2.0000       PFind                   None            0.00    0.00    None
 13.6000         6.5055           0.0000          0.0000            31.67         1.71          0.0800            0.0000           3.1667       PFind                   None            0.00    0.00    None
 13.7600         6.4302           0.0000          0.0000            55.83         3.01          0.0800            0.0000           2.2333       PFind                   None            0.00    0.00    None
 13.9200         6.3567           0.0000          0.0000            26.67         1.44          0.1000            0.0000           1.6000       PFind                   None            0.00    0.00    None
 14.8400         5.9646           0.0000          0.0000            40.00         2.16          0.0800            0.0000           3.2000       PFind                   None            0.00    0.00    None
 15.1400         5.8471           0.0000          0.0000            29.17         1.57          0.0800            0.0000           0.0000       PFind                   None            0.00    0.00    None
 15.2800         5.7938           0.0000          0.0000            38.33         2.07          0.0800            0.0000           0.0000       PFind                   None            0.00    0.00    None
 15.4400         5.7342           0.0000          0.0000            26.67         1.44          0.0600            0.0000           0.0000       PFind                   None            0.00    0.00    None
 15.7200         5.6326           0.0000          0.0000            31.67         1.71          0.0000            0.0000           0.6333       PFind                   None            0.00    0.00    None
 16.3200         5.4269           0.0000          0.0000            27.50         1.48          0.1600            0.0000           0.5500       PFind                   None            0.00    0.00    None
 16.8800         5.2481           0.0000          0.0000            24.17         1.30          0.1600            0.0000           0.4833       PFind                   None            0.00    0.00    None
 17.2200         5.1452           0.0000          0.0000            34.17         1.84          0.1000            0.0000           0.6833       PFind                   None            0.00    0.00    None
 17.7400         4.9956           0.0000          0.0000           272.50        14.70          0.0600            0.0000          27.2500       PFind                   None            0.00    0.00    None
 18.3400         4.8335           0.0000          0.0000            29.17         1.57          0.0800            0.0000           2.9167       PFind                   None            0.00    0.00    None
 18.4600         4.8023           0.0000          0.0000            46.67         2.52          0.1600            0.0000           5.6000       PFind                   None            0.00    0.00    None
 18.6800         4.7462           0.0000          0.0000           116.67         6.29          0.1200            0.0000          11.6667       PFind                   None            0.00    0.00    None
 18.9600         4.6768           0.0000          0.0000            24.17         1.30          0.1200            0.0000           0.0000       PFind                   None            0.00    0.00    None
 19.3000         4.5952           0.0000          0.0000            33.33         1.80          0.0600            0.0000           2.0000       PFind                   None            0.00    0.00    None
 19.7400         4.4937           0.0000          0.0000            70.00         3.78          0.0000            0.0000           8.4000       PFind                   None            0.00    0.00    None
 20.0600         4.4227           0.0000          0.0000            26.67         1.44          0.1600            0.0000           2.1333       PFind                   None            0.00    0.00    None
 20.1000         4.4140           0.0000          0.0000            36.67         1.98          0.0600            0.0000           0.0000       PFind                   None            0.00    0.00    None
 20.4400         4.3414           0.0000          0.0000            35.00         1.89          0.0000            0.0000           2.8000       PFind                   None            0.00    0.00    None
 20.7600         4.2752           0.0000          0.0000           200.83        10.83          0.1000            0.0000          20.0833       PFind                   None            0.00    0.00    None
 21.6400         4.1033           0.0000          0.0000            24.17         1.30          0.1600            0.0000           0.4833       PFind                   None            0.00    0.00    None
 21.9400         4.0478           0.0000          0.0000           401.67        21.66          0.1200            0.0000          32.1333       PFind                   None            0.00    0.00    None
 22.4000         3.9657           0.0000          0.0000            39.17         2.11          0.1200            0.0000           3.1333       PFind                   None            0.00    0.00    None
 22.7800         3.9004           0.0000          0.0000            60.00         3.24          0.0000            0.0000           7.2000       PFind                   None            0.00    0.00    None
 23.4800         3.7857           0.0000          0.0000            89.17         4.81          0.1200            0.0000           8.9167       PFind                   None            0.00    0.00    None
 23.7200         3.7479           0.0000          0.0000            40.00         2.16          0.0800            0.0000           3.2000       PFind                   None            0.00    0.00    None
 24.1600         3.6807           0.0000          0.0000           112.50         6.07          0.1400            0.0000           9.0000       PFind                   None            0.00    0.00    None
 24.5400         3.6245           0.0000          0.0000           180.00         9.71          0.0800            0.0000          25.2000       PFind                   None            0.00    0.00    None
 24.8000         3.5871           0.0000          0.0000            66.67         3.60          0.0200            0.0000           4.0000       PFind                   None            0.00    0.00    None
 25.0600         3.5505           0.0000          0.0000           222.50        12.00          0.0200            0.0000          22.2500       PFind                   None            0.00    0.00    None
 25.4200         3.5010           0.0000          0.0000           105.83         5.71          0.0800            0.0000          16.9333       PFind                   None            0.00    0.00    None
 25.8000         3.4503           0.0000          0.0000            24.17         1.30          0.1600            0.0000           0.0000       PFind                   None            0.00    0.00    None
 26.1000         3.4113           0.0000          0.0000            48.33         2.61          0.0000            0.0000           0.0000       PFind                   None            0.00    0.00    None
 26.5400         3.3558           0.0000          0.0000          1854.17       100.00          0.0400            0.0000         148.3333       PFind                   None            0.00    0.00    None
 26.8000         3.3238           0.0000          0.0000           660.00        35.60          0.0600            0.0000          79.2000       PFind                   None            0.00    0.00    None
 27.4200         3.2500           0.0000          0.0000            73.33         3.96          0.1000            0.0000          10.2667       PFind                   None            0.00    0.00    None
 27.8200         3.2042           0.0000          0.0000           710.83        38.34          0.0600            0.0000          71.0833       PFind                   None            0.00    0.00    None
 28.1600         3.1663           0.0000          0.0000           107.50         5.80          0.1200            0.0000          17.2000       PFind                   None            0.00    0.00    None
 28.5200         3.1271           0.0000          0.0000            79.17         4.27          0.0800            0.0000           9.5000       PFind                   None            0.00    0.00    None
 29.7600         2.9996           0.0000          0.0000           208.33        11.24          0.0400            0.0000          20.8333       PFind                   None            0.00    0.00    None
 30.1000         2.9665           0.0000          0.0000            55.83         3.01          0.0800            0.0000           5.5833       PFind                   None            0.00    0.00    None
 30.3800         2.9398           0.0000          0.0000            89.17         4.81          0.0800            0.0000           3.5667       PFind                   None            0.00    0.00    None
 30.7600         2.9043           0.0000          0.0000            72.50         3.91          0.0600            0.0000          10.1500       PFind                   None            0.00    0.00    None
 31.1400         2.8697           0.0000          0.0000            88.33         4.76          0.0200            0.0000          14.1333       PFind                   None            0.00    0.00    None
 31.4800         2.8395           0.0000          0.0000            70.00         3.78          0.0000            0.0000           1.4000       PFind                   None            0.00    0.00    None
 31.7800         2.8134           0.0000          0.0000            63.33         3.42          0.1000            0.0000           6.3333       PFind                   None            0.00    0.00    None
 31.9800         2.7962           0.0000          0.0000            60.83         3.28          0.0600            0.0000           9.7333       PFind                   None            0.00    0.00    None
 32.1200         2.7844           0.0000          0.0000            35.83         1.93          0.0800            0.0000           2.8667       PFind                   None            0.00    0.00    None
 32.9800         2.7137           0.0000          0.0000            35.00         1.89          0.1600            0.0000           3.5000       PFind                   None            0.00    0.00    None
 33.4200         2.6790           0.0000          0.0000            31.67         1.71          0.0200            0.0000           2.5333       PFind                   None            0.00    0.00    None
 33.9000         2.6421           0.0000          0.0000            28.33         1.53          0.0400            0.0000           2.2667       PFind                   None            0.00    0.00    None
 33.9800         2.6361           0.0000          0.0000            36.67         1.98          0.0600            0.0000           0.0000       PFind                   None            0.00    0.00    None
 34.5000         2.5975           0.0000          0.0000            68.33         3.69          0.0200            0.0000           8.2000       PFind                   None            0.00    0.00    None
 34.8200         2.5744           0.0000          0.0000            99.17         5.35          0.0200            0.0000          13.8833       PFind                   None            0.00    0.00    None
 35.1200         2.5531           0.0000          0.0000            35.00         1.89          0.1000            0.0000           2.8000       PFind                   None            0.00    0.00    None
 35.4400         2.5308           0.0000          0.0000           211.67        11.42          0.0800            0.0000          29.6333       PFind                   None            0.00    0.00    None
 36.0400         2.4900           0.0000          0.0000            53.33         2.88          0.0800            0.0000           5.3333       PFind                   None            0.00    0.00    None
 36.4400         2.4636           0.0000          0.0000           140.83         7.60          0.0800            0.0000          14.0833       PFind                   None            0.00    0.00    None
 37.2000         2.4150           0.0000          0.0000            36.67         1.98          0.0400            0.0000           2.9333       PFind                   None            0.00    0.00    None
 37.3400         2.4062           0.0000          0.0000            50.83         2.74          0.0600            0.0000           8.1333       PFind                   None            0.00    0.00    None
 37.5600         2.3927           0.0000          0.0000            71.67         3.87          0.0800            0.0000          11.4667       PFind                   None            0.00    0.00    None
 38.5600         2.3329           0.0000          0.0000            26.67         1.44          0.1000            0.0000           2.6667       PFind                   None            0.00    0.00    None
 38.6800         2.3259           0.0000          0.0000            29.17         1.57          0.1200            0.0000           4.0833       PFind                   None            0.00    0.00    None
 38.8800         2.3144           0.0000          0.0000            26.67         1.44          0.1200            0.0000           2.1333       PFind                   None            0.00    0.00    None
 39.3600         2.2873           0.0000          0.0000           105.00         5.66          0.1400            0.0000           6.3000       PFind                   None            0.00    0.00    None
 39.5800         2.2751           0.0000          0.0000           213.33        11.51          0.0800            0.0000           8.5333       PFind                   None            0.00    0.00    None
 39.9800         2.2532           0.0000          0.0000            26.67         1.44          0.0800            0.0000           1.6000       PFind                   None            0.00    0.00    None
 40.1800         2.2425           0.0000          0.0000            81.67         4.40          0.0000            0.0000           4.9000       PFind                   None            0.00    0.00    None
 40.8200         2.2088           0.0000          0.0000            27.50         1.48          0.0400            0.0000           0.0000       PFind                   None            0.00    0.00    None
 41.1400         2.1923           0.0000          0.0000            47.50         2.56          0.1000            0.0000           0.0000       PFind                   None            0.00    0.00    None
 41.6200         2.1682           0.0000          0.0000            40.83         2.20          0.0200            0.0000           3.2667       PFind                   None            0.00    0.00    None
 41.8400         2.1573           0.0000          0.0000            35.83         1.93          0.0000            0.0000           3.5833       PFind                   None            0.00    0.00    None
 42.3600         2.1320           0.0000          0.0000           101.67         5.48          0.0400            0.0000          16.2667       PFind                   None            0.00    0.00    None
 42.8400         2.1092           0.0000          0.0000            25.00         1.35          0.1000            0.0000           0.0000       PFind                   None            0.00    0.00    None
 43.4200         2.0824           0.0000          0.0000            63.33         3.42          0.1000            0.0000           6.3333       PFind                   None            0.00    0.00    None
 43.5600         2.0760           0.0000          0.0000            60.00         3.24          0.0800            0.0000           9.6000       PFind                   None            0.00    0.00    None
 43.6000         2.0742           0.0000          0.0000            53.33         2.88          0.0800            0.0000           8.5333       PFind                   None            0.00    0.00    None
 43.9800         2.0571           0.0000          0.0000            41.67         2.25          0.1400            0.0000           2.5000       PFind                   None            0.00    0.00    None
 44.4200         2.0378           0.0000          0.0000           210.00        11.33          0.0600            0.0000          33.6000       PFind                   None            0.00    0.00    None
 44.8400         2.0197           0.0000          0.0000           121.67         6.56          0.0600            0.0000          19.4667       PFind                   None            0.00    0.00    None
 45.5200         1.9910           0.0000          0.0000           248.33        13.39          0.0400            0.0000          39.7333       PFind                   None            0.00    0.00    None
 46.0600         1.9690           0.0000          0.0000            38.33         2.07          0.1000            0.0000           0.7667       PFind                   None            0.00    0.00    None
 46.2000         1.9633           0.0000          0.0000            25.00         1.35          0.0000            0.0000           0.5000       PFind                   None            0.00    0.00    None
 46.3400         1.9577           0.0000          0.0000            29.17         1.57          0.0800            0.0000           0.0000       PFind                   None            0.00    0.00    None
 46.4600         1.9529           0.0000          0.0000            27.50         1.48          0.0800            0.0000           2.2000       PFind                   None            0.00    0.00    None
 47.0000         1.9317           0.0000          0.0000            27.50         1.48          0.0800            0.0000           0.5500       PFind                   None            0.00    0.00    None
 48.0600         1.8916           0.0000          0.0000            45.00         2.43          0.1000            0.0000           5.4000       PFind                   None            0.00    0.00    None
 49.1200         1.8532           0.0000          0.0000            49.17         2.65          0.1600            0.0000           2.9500       PFind                   None            0.00    0.00    None
 49.2400         1.8490           0.0000          0.0000            40.83         2.20          0.1600            0.0000           2.4500       PFind                   None            0.00    0.00    None
 49.5000         1.8399           0.0000          0.0000            29.17         1.57          0.1400            0.0000           2.3333       PFind                   None            0.00    0.00    None
 49.6200         1.8357           0.0000          0.0000            42.50         2.29          0.0400            0.0000           5.9500       PFind                   None            0.00    0.00    None
 50.0400         1.8213           0.0000          0.0000           300.00        16.18          0.1000            0.0000          24.0000       PFind                   None            0.00    0.00    None
 50.4800         1.8064           0.0000          0.0000            53.33         2.88          0.1000            0.0000           6.4000       PFind                   None            0.00    0.00    None
 51.0400         1.7879           0.0000          0.0000            48.33         2.61          0.0000            0.0000           3.8667       PFind                   None            0.00    0.00    None
 51.2200         1.7821           0.0000          0.0000            37.50         2.02          0.1000            0.0000           3.0000       PFind                   None            0.00    0.00    None
 52.0600         1.7553           0.0000          0.0000           116.67         6.29          0.0000            0.0000           4.6667       PFind                   None            0.00    0.00    None
 52.1800         1.7515           0.0000          0.0000            69.17         3.73          0.0000            0.0000           2.7667       PFind                   None            0.00    0.00    None
 52.4400         1.7434           0.0000          0.0000            24.17         1.30          0.1600            0.0000           1.9333       PFind                   None            0.00    0.00    None
 52.8000         1.7324           0.0000          0.0000            33.33         1.80          0.1600            0.0000           2.6667       PFind                   None            0.00    0.00    None
 53.0600         1.7245           0.0000          0.0000            40.00         2.16          0.1000            0.0000           1.6000       PFind                   None            0.00    0.00    None
 53.1200         1.7227           0.0000          0.0000            31.67         1.71          0.0200            0.0000           5.0667       PFind                   None            0.00    0.00    None
 54.7800         1.6744           0.0000          0.0000            88.33         4.76          0.0000            0.0000           7.0667       PFind                   None            0.00    0.00    None
 55.1800         1.6632           0.0000          0.0000            40.00         2.16          0.0800            0.0000           4.8000       PFind                   None            0.00    0.00    None
 55.4000         1.6571           0.0000          0.0000            27.50         1.48          0.0400            0.0000           2.7500       PFind                   None            0.00    0.00    None
 55.7800         1.6467           0.0000          0.0000            60.83         3.28          0.0000            0.0000           9.7333       PFind                   None            0.00    0.00    None
 56.8200         1.6190           0.0000          0.0000            25.00         1.35          0.1400            0.0000           1.5000       PFind                   None            0.00    0.00    None
 58.6800         1.5720           0.0000          0.0000            24.17         1.30          0.0200            0.0000           2.4167       PFind                   None            0.00    0.00    None
 58.8000         1.5691           0.0000          0.0000            25.00         1.35          0.0800            0.0000           0.5000       PFind                   None            0.00    0.00    None
 59.0400         1.5633           0.0000          0.0000            30.00         1.62          0.0800            0.0000           1.2000       PFind                   None            0.00    0.00    None
 59.8600         1.5438           0.0000          0.0000           250.83        13.53          0.0800            0.0000          20.0667       PFind                   None            0.00    0.00    None
 60.0200         1.5401           0.0000          0.0000           134.17         7.24          0.1400            0.0000          18.7833       PFind                   None            0.00    0.00    None
 60.2400         1.5350           0.0000          0.0000            40.00         2.16          0.1600            0.0000           0.0000       PFind                   None            0.00    0.00    None
 60.6200         1.5263           0.0000          0.0000            36.67         1.98          0.0600            0.0000           3.6667       PFind                   None            0.00    0.00    None
 60.7600         1.5231           0.0000          0.0000            30.83         1.66          0.0200            0.0000           3.7000       PFind                   None            0.00    0.00    None
 60.8800         1.5204           0.0000          0.0000            31.67         1.71          0.1600            0.0000           0.6333       PFind                   None            0.00    0.00    None
 61.4600         1.5074           0.0000          0.0000            54.17         2.92          0.1200            0.0000           8.6667       PFind                   None            0.00    0.00    None
 61.6000         1.5043           0.0000          0.0000            38.33         2.07          0.1000            0.0000           6.1333       PFind                   None            0.00    0.00    None
 61.7600         1.5008           0.0000          0.0000            30.00         1.62          0.0600            0.0000           4.8000       PFind                   None            0.00    0.00    None
 63.9200         1.4552           0.0000          0.0000            47.50         2.56          0.1400            0.0000           5.7000       PFind                   None            0.00    0.00    None
 64.1000         1.4516           0.0000          0.0000            38.33         2.07          0.1400            0.0000           6.1333       PFind                   None            0.00    0.00    None
 64.8800         1.4360           0.0000          0.0000            36.67         1.98          0.0800            0.0000           0.7333       PFind                   None            0.00    0.00    None