File: Generating XRD fingerprints/INPUT/Detrital data/G14A_pf_FT.txt
Filename:
	C:\Program Files\Thermo Electron\WinXRD\Datafiles\FIEN2\FIEN\G14A_FT.pk

File Created:
	February 25, 2021 - 10:42 AM

Specimen Id:
	G14 A FT

Specimen Name:

Specimen Description:

Comment:
Scan Type: 2Theta Scan
Start Angle: 1 deg.
Stop Angle: 65 deg.
Num Points: 3201
Step Size: 0.02 deg.
Scan Rate: 1.000000
Scan Mode: Continuous
Wavelength: 1.540562
\Kalpha1: 1.540562	\Kalpha2: 1.544390	\Kbeta: 1.392218

Optics:
		Detector:
			 Type: Fixed Slits
		Tube:
			 Type: Fixed Slits

Datas:
Peaks:

Position        Dspace          ESD(P)          Corr.Fact       Intensity       Rel.Int.        FWHM(L)         ESD(L)          Area            Source                  Curve           Strain  CSize   CSize_Source
[deg]           [A]             [deg]           [deg]           [CPS]           [CPS]           [deg]           [deg]           [deg]           [--]                    [--]            [--]    [--]    [--]
  2.8000        31.5273           0.0000          0.0000           111.67         7.15          0.1600            0.0000          15.6333       PFind                   None            0.00    0.00    None
  2.9400        30.0263           0.0000          0.0000            81.67         5.23          0.1400            0.0000           8.1667       PFind                   None            0.00    0.00    None
  3.2400        27.2467           0.0000          0.0000            79.17         5.07          0.0200            0.0000           3.1667       PFind                   None            0.00    0.00    None
  3.3200        26.5904           0.0000          0.0000            67.50         4.32          0.1000            0.0000           5.4000       PFind                   None            0.00    0.00    None
  3.5000        25.2233           0.0000          0.0000            94.17         6.03          0.0600            0.0000           5.6500       PFind                   None            0.00    0.00    None
  3.6200        24.3874           0.0000          0.0000            96.67         6.19          0.0400            0.0000           5.8000       PFind                   None            0.00    0.00    None
  3.9200        22.5217           0.0000          0.0000            82.50         5.28          0.0400            0.0000           4.9500       PFind                   None            0.00    0.00    None
  3.9800        22.1823           0.0000          0.0000            50.83         3.26          0.0000            0.0000           8.1333       PFind                   None            0.00    0.00    None
  4.3000        20.5322           0.0000          0.0000            69.17         4.43          0.1000            0.0000           2.7667       PFind                   None            0.00    0.00    None
  4.4800        19.7076           0.0000          0.0000            52.50         3.36          0.1600            0.0000           6.3000       PFind                   None            0.00    0.00    None
  4.5800        19.2776           0.0000          0.0000            52.50         3.36          0.1600            0.0000           0.0000       PFind                   None            0.00    0.00    None
  4.6600        18.9468           0.0000          0.0000            70.83         4.54          0.1600            0.0000           4.2500       PFind                   None            0.00    0.00    None
  5.0200        17.5888           0.0000          0.0000            52.50         3.36          0.1600            0.0000           2.1000       PFind                   None            0.00    0.00    None
  5.1600        17.1119           0.0000          0.0000            47.50         3.04          0.1600            0.0000           3.8000       PFind                   None            0.00    0.00    None
  5.3600        16.4739           0.0000          0.0000            54.17         3.47          0.1600            0.0000           3.2500       PFind                   None            0.00    0.00    None
  5.6000        15.7684           0.0000          0.0000            59.17         3.79          0.1400            0.0000           0.0000       PFind                   None            0.00    0.00    None
  5.8800        15.0181           0.0000          0.0000            54.17         3.47          0.1600            0.0000           1.0833       PFind                   None            0.00    0.00    None
  6.2400        14.1525           0.0000          0.0000           149.17         9.55          0.1000            0.0000          23.8667       PFind                   None            0.00    0.00    None
  6.4200        13.7561           0.0000          0.0000           205.00        13.13          0.0800            0.0000          24.6000       PFind                   None            0.00    0.00    None
  6.6000        13.3813           0.0000          0.0000            52.50         3.36          0.1200            0.0000           5.2500       PFind                   None            0.00    0.00    None
  6.8400        12.9123           0.0000          0.0000            50.83         3.26          0.0200            0.0000           4.0667       PFind                   None            0.00    0.00    None
  6.9600        12.6899           0.0000          0.0000            51.67         3.31          0.0400            0.0000           3.1000       PFind                   None            0.00    0.00    None
  7.1200        12.4051           0.0000          0.0000            52.50         3.36          0.1400            0.0000           6.3000       PFind                   None            0.00    0.00    None
  7.3800        11.9687           0.0000          0.0000            32.50         2.08          0.1000            0.0000           3.2500       PFind                   None            0.00    0.00    None
  7.6000        11.6227           0.0000          0.0000            39.17         2.51          0.1400            0.0000           3.1333       PFind                   None            0.00    0.00    None
  7.6800        11.5018           0.0000          0.0000            26.67         1.71          0.1200            0.0000           0.5333       PFind                   None            0.00    0.00    None
  7.9600        11.0978           0.0000          0.0000            35.83         2.29          0.1600            0.0000           0.7167       PFind                   None            0.00    0.00    None
  8.0200        11.0149           0.0000          0.0000            50.00         3.20          0.1600            0.0000           0.0000       PFind                   None            0.00    0.00    None
  8.1200        10.8795           0.0000          0.0000            29.17         1.87          0.0800            0.0000           2.9167       PFind                   None            0.00    0.00    None
  8.3800        10.5425           0.0000          0.0000            47.50         3.04          0.0600            0.0000           5.7000       PFind                   None            0.00    0.00    None
  8.5400        10.3454           0.0000          0.0000            85.83         5.50          0.0200            0.0000          13.7333       PFind                   None            0.00    0.00    None
  9.0400         9.7743           0.0000          0.0000           824.17        52.77          0.0800            0.0000         115.3833       PFind                   None            0.00    0.00    None
  9.6200         9.1862           0.0000          0.0000           120.83         7.74          0.0200            0.0000          16.9167       PFind                   None            0.00    0.00    None
 10.0800         8.7680           0.0000          0.0000            30.00         1.92          0.1600            0.0000           1.2000       PFind                   None            0.00    0.00    None
 10.3400         8.5481           0.0000          0.0000            28.33         1.81          0.0800            0.0000           1.7000       PFind                   None            0.00    0.00    None
 10.7000         8.2613           0.0000          0.0000           123.33         7.90          0.0800            0.0000          12.3333       PFind                   None            0.00    0.00    None
 10.9400         8.0806           0.0000          0.0000            43.33         2.77          0.1600            0.0000           0.8667       PFind                   None            0.00    0.00    None
 11.0000         8.0367           0.0000          0.0000            31.67         2.03          0.1400            0.0000           0.6333       PFind                   None            0.00    0.00    None
 11.9000         7.4308           0.0000          0.0000            40.83         2.61          0.1600            0.0000           1.6333       PFind                   None            0.00    0.00    None
 12.3800         7.1438           0.0000          0.0000          1045.00        66.92          0.0400            0.0000         146.3000       PFind                   None            0.00    0.00    None
 12.6800         6.9754           0.0000          0.0000           764.17        48.93          0.0600            0.0000         106.9833       PFind                   None            0.00    0.00    None
 13.7200         6.4489           0.0000          0.0000            35.83         2.29          0.0800            0.0000           0.7167       PFind                   None            0.00    0.00    None
 14.0400         6.3026           0.0000          0.0000            63.33         4.06          0.0000            0.0000           6.3333       PFind                   None            0.00    0.00    None
 14.3200         6.1800           0.0000          0.0000            30.00         1.92          0.0200            0.0000           4.8000       PFind                   None            0.00    0.00    None
 14.5200         6.0953           0.0000          0.0000            28.33         1.81          0.0000            0.0000           1.7000       PFind                   None            0.00    0.00    None
 15.2000         5.8241           0.0000          0.0000            36.67         2.35          0.0400            0.0000           5.1333       PFind                   None            0.00    0.00    None
 18.0000         4.9240           0.0000          0.0000           424.17        27.16          0.0400            0.0000          50.9000       PFind                   None            0.00    0.00    None
 18.9800         4.6719           0.0000          0.0000           322.50        20.65          0.0000            0.0000          38.7000       PFind                   None            0.00    0.00    None
 19.6000         4.5255           0.0000          0.0000            26.67         1.71          0.0400            0.0000           0.5333       PFind                   None            0.00    0.00    None
 20.0200         4.4315           0.0000          0.0000            78.33         5.02          0.1000            0.0000          12.5333       PFind                   None            0.00    0.00    None
 21.0400         4.2189           0.0000          0.0000           281.67        18.04          0.0600            0.0000          28.1667       PFind                   None            0.00    0.00    None
 21.4400         4.1411           0.0000          0.0000            33.33         2.13          0.0800            0.0000           0.0000       PFind                   None            0.00    0.00    None
 21.7400         4.0846           0.0000          0.0000            32.50         2.08          0.0800            0.0000           0.6500       PFind                   None            0.00    0.00    None
 22.2000         4.0010           0.0000          0.0000           274.17        17.56          0.0400            0.0000          27.4167       PFind                   None            0.00    0.00    None
 22.8200         3.8937           0.0000          0.0000            29.17         1.87          0.1600            0.0000           0.0000       PFind                   None            0.00    0.00    None
 23.1000         3.8471           0.0000          0.0000            66.67         4.27          0.1600            0.0000          10.6667       PFind                   None            0.00    0.00    None
 23.7400         3.7448           0.0000          0.0000           191.67        12.27          0.0200            0.0000          26.8333       PFind                   None            0.00    0.00    None
 23.9400         3.7140           0.0000          0.0000            30.83         1.97          0.0000            0.0000           0.0000       PFind                   None            0.00    0.00    None
 24.5000         3.6304           0.0000          0.0000           112.50         7.20          0.1200            0.0000          18.0000       PFind                   None            0.00    0.00    None
 24.8200         3.5843           0.0000          0.0000           738.33        47.28          0.0600            0.0000         118.1333       PFind                   None            0.00    0.00    None
 25.3000         3.5173           0.0000          0.0000           618.33        39.59          0.1600            0.0000          86.5667       PFind                   None            0.00    0.00    None
 25.7400         3.4582           0.0000          0.0000           118.33         7.58          0.0000            0.0000          18.9333       PFind                   None            0.00    0.00    None
 26.0600         3.4165           0.0000          0.0000            30.00         1.92          0.1400            0.0000           1.2000       PFind                   None            0.00    0.00    None
 26.8000         3.3238           0.0000          0.0000          1561.67       100.00          0.1400            0.0000         218.6333       PFind                   None            0.00    0.00    None
 27.0200         3.2972           0.0000          0.0000          1107.50        70.92          0.1000            0.0000         177.2000       PFind                   None            0.00    0.00    None
 27.6600         3.2224           0.0000          0.0000           186.67        11.95          0.1600            0.0000          22.4000       PFind                   None            0.00    0.00    None
 28.0800         3.1751           0.0000          0.0000           670.00        42.90          0.0600            0.0000         107.2000       PFind                   None            0.00    0.00    None
 28.7800         3.0995           0.0000          0.0000           193.33        12.38          0.0600            0.0000          30.9333       PFind                   None            0.00    0.00    None
 30.0400         2.9723           0.0000          0.0000           137.50         8.80          0.0600            0.0000          22.0000       PFind                   None            0.00    0.00    None
 30.3600         2.9417           0.0000          0.0000            74.17         4.75          0.1400            0.0000          11.8667       PFind                   None            0.00    0.00    None
 30.5800         2.9210           0.0000          0.0000           105.00         6.72          0.1400            0.0000          16.8000       PFind                   None            0.00    0.00    None
 31.0200         2.8806           0.0000          0.0000            53.33         3.42          0.1600            0.0000           7.4667       PFind                   None            0.00    0.00    None
 31.1400         2.8697           0.0000          0.0000            42.50         2.72          0.1600            0.0000           5.1000       PFind                   None            0.00    0.00    None
 31.4000         2.8466           0.0000          0.0000           135.00         8.64          0.1200            0.0000          21.6000       PFind                   None            0.00    0.00    None
 31.7400         2.8168           0.0000          0.0000           116.67         7.47          0.1000            0.0000          18.6667       PFind                   None            0.00    0.00    None
 32.2800         2.7709           0.0000          0.0000            90.00         5.76          0.0200            0.0000          14.4000       PFind                   None            0.00    0.00    None
 32.4200         2.7593           0.0000          0.0000            58.33         3.74          0.1400            0.0000           2.3333       PFind                   None            0.00    0.00    None
 33.2400         2.6931           0.0000          0.0000            68.33         4.38          0.0000            0.0000           5.4667       PFind                   None            0.00    0.00    None
 33.5200         2.6712           0.0000          0.0000            37.50         2.40          0.1000            0.0000           0.0000       PFind                   None            0.00    0.00    None
 34.1600         2.6226           0.0000          0.0000            56.67         3.63          0.1200            0.0000           1.1333       PFind                   None            0.00    0.00    None
 34.2000         2.6196           0.0000          0.0000            40.00         2.56          0.1200            0.0000           0.0000       PFind                   None            0.00    0.00    None
 34.6800         2.5845           0.0000          0.0000            70.83         4.54          0.0200            0.0000          11.3333       PFind                   None            0.00    0.00    None
 35.1400         2.5517           0.0000          0.0000           110.83         7.10          0.1400            0.0000          17.7333       PFind                   None            0.00    0.00    None
 35.5400         2.5239           0.0000          0.0000            55.00         3.52          0.1600            0.0000           3.3000       PFind                   None            0.00    0.00    None
 35.7600         2.5089           0.0000          0.0000           137.50         8.80          0.0800            0.0000          22.0000       PFind                   None            0.00    0.00    None
 36.1600         2.4820           0.0000          0.0000            80.00         5.12          0.1400            0.0000           9.6000       PFind                   None            0.00    0.00    None
 36.7200         2.4454           0.0000          0.0000           130.83         8.38          0.1000            0.0000          20.9333       PFind                   None            0.00    0.00    None
 37.1000         2.4213           0.0000          0.0000            31.67         2.03          0.1000            0.0000           0.0000       PFind                   None            0.00    0.00    None
 37.2600         2.4112           0.0000          0.0000            45.00         2.88          0.0000            0.0000           3.6000       PFind                   None            0.00    0.00    None
 37.4200         2.4013           0.0000          0.0000            49.17         3.15          0.1600            0.0000           7.8667       PFind                   None            0.00    0.00    None
 37.5400         2.3939           0.0000          0.0000            65.00         4.16          0.1400            0.0000          10.4000       PFind                   None            0.00    0.00    None
 37.7800         2.3792           0.0000          0.0000            75.00         4.80          0.0600            0.0000          12.0000       PFind                   None            0.00    0.00    None
 38.9400         2.3110           0.0000          0.0000            54.17         3.47          0.1600            0.0000           2.1667       PFind                   None            0.00    0.00    None
 39.6200         2.2729           0.0000          0.0000            90.00         5.76          0.1000            0.0000          10.8000       PFind                   None            0.00    0.00    None
 40.4800         2.2265           0.0000          0.0000            60.00         3.84          0.1600            0.0000           9.6000       PFind                   None            0.00    0.00    None
 41.4400         2.1772           0.0000          0.0000            28.33         1.81          0.1200            0.0000           3.4000       PFind                   None            0.00    0.00    None
 41.8600         2.1563           0.0000          0.0000            50.83         3.26          0.0000            0.0000           7.1167       PFind                   None            0.00    0.00    None
 42.0800         2.1455           0.0000          0.0000            46.67         2.99          0.1200            0.0000           7.4667       PFind                   None            0.00    0.00    None
 42.2800         2.1358           0.0000          0.0000            31.67         2.03          0.0800            0.0000           5.0667       PFind                   None            0.00    0.00    None
 42.6000         2.1205           0.0000          0.0000           120.83         7.74          0.0200            0.0000          14.5000       PFind                   None            0.00    0.00    None
 43.2000         2.0924           0.0000          0.0000            30.00         1.92          0.0800            0.0000           1.8000       PFind                   None            0.00    0.00    None
 43.4800         2.0796           0.0000          0.0000            26.67         1.71          0.0600            0.0000           0.5333       PFind                   None            0.00    0.00    None
 45.1400         2.0069           0.0000          0.0000            77.50         4.96          0.1600            0.0000           7.7500       PFind                   None            0.00    0.00    None
 45.2600         2.0019           0.0000          0.0000            70.83         4.54          0.1200            0.0000          11.3333       PFind                   None            0.00    0.00    None
 45.7400         1.9820           0.0000          0.0000           404.17        25.88          0.1200            0.0000          64.6667       PFind                   None            0.00    0.00    None
 46.2200         1.9625           0.0000          0.0000            50.83         3.26          0.0800            0.0000           2.0333       PFind                   None            0.00    0.00    None
 47.3200         1.9194           0.0000          0.0000            37.50         2.40          0.0200            0.0000           3.7500       PFind                   None            0.00    0.00    None
 48.2400         1.8849           0.0000          0.0000            45.83         2.93          0.1600            0.0000           3.6667       PFind                   None            0.00    0.00    None
 48.4000         1.8791           0.0000          0.0000            38.33         2.45          0.1600            0.0000           6.1333       PFind                   None            0.00    0.00    None
 49.3800         1.8441           0.0000          0.0000            38.33         2.45          0.1600            0.0000           0.0000       PFind                   None            0.00    0.00    None
 50.3000         1.8125           0.0000          0.0000           191.67        12.27          0.0000            0.0000          30.6667       PFind                   None            0.00    0.00    None
 50.7000         1.7991           0.0000          0.0000            58.33         3.74          0.0400            0.0000           7.0000       PFind                   None            0.00    0.00    None
 51.3000         1.7795           0.0000          0.0000            67.50         4.32          0.0200            0.0000           5.4000       PFind                   None            0.00    0.00    None
 51.3800         1.7769           0.0000          0.0000            57.50         3.68          0.1600            0.0000           9.2000       PFind                   None            0.00    0.00    None
 52.5600         1.7397           0.0000          0.0000            40.83         2.61          0.1200            0.0000           3.2667       PFind                   None            0.00    0.00    None
 52.7000         1.7354           0.0000          0.0000            33.33         2.13          0.1200            0.0000           3.3333       PFind                   None            0.00    0.00    None
 52.8800         1.7300           0.0000          0.0000            31.67         2.03          0.0800            0.0000           3.1667       PFind                   None            0.00    0.00    None
 53.1400         1.7221           0.0000          0.0000            28.33         1.81          0.1600            0.0000           3.4000       PFind                   None            0.00    0.00    None
 53.3600         1.7155           0.0000          0.0000            30.83         1.97          0.0200            0.0000           3.0833       PFind                   None            0.00    0.00    None
 54.5600         1.6806           0.0000          0.0000            29.17         1.87          0.1400            0.0000           2.3333       PFind                   None            0.00    0.00    None
 54.7200         1.6761           0.0000          0.0000            35.00         2.24          0.0000            0.0000           2.8000       PFind                   None            0.00    0.00    None
 54.9800         1.6687           0.0000          0.0000            71.67         4.59          0.1200            0.0000           7.1667       PFind                   None            0.00    0.00    None
 55.4600         1.6554           0.0000          0.0000            58.33         3.74          0.1600            0.0000           8.1667       PFind                   None            0.00    0.00    None
 55.9200         1.6429           0.0000          0.0000            66.67         4.27          0.0000            0.0000          10.6667       PFind                   None            0.00    0.00    None
 56.3400         1.6316           0.0000          0.0000            29.17         1.87          0.1000            0.0000           0.5833       PFind                   None            0.00    0.00    None
 57.7400         1.5954           0.0000          0.0000            31.67         2.03          0.1000            0.0000           0.0000       PFind                   None            0.00    0.00    None
 58.8400         1.5681           0.0000          0.0000            31.67         2.03          0.1200            0.0000           0.6333       PFind                   None            0.00    0.00    None
 59.2200         1.5590           0.0000          0.0000            30.83         1.97          0.1600            0.0000           3.7000       PFind                   None            0.00    0.00    None
 59.3000         1.5571           0.0000          0.0000            44.17         2.83          0.0800            0.0000           3.5333       PFind                   None            0.00    0.00    None
 60.0800         1.5387           0.0000          0.0000           150.83         9.66          0.1200            0.0000          21.1167       PFind                   None            0.00    0.00    None
 60.7400         1.5236           0.0000          0.0000            30.00         1.92          0.1200            0.0000           0.6000       PFind                   None            0.00    0.00    None
 61.0200         1.5172           0.0000          0.0000            40.83         2.61          0.0400            0.0000           6.5333       PFind                   None            0.00    0.00    None
 61.5200         1.5061           0.0000          0.0000            36.67         2.35          0.1600            0.0000           3.6667       PFind                   None            0.00    0.00    None
 61.6600         1.5030           0.0000          0.0000            37.50         2.40          0.0600            0.0000           5.2500       PFind                   None            0.00    0.00    None
 61.7600         1.5008           0.0000          0.0000            35.83         2.29          0.1000            0.0000           5.7333       PFind                   None            0.00    0.00    None
 61.9000         1.4978           0.0000          0.0000            37.50         2.40          0.1200            0.0000           3.0000       PFind                   None            0.00    0.00    None
 62.0000         1.4956           0.0000          0.0000            32.50         2.08          0.1600            0.0000           5.2000       PFind                   None            0.00    0.00    None
 62.2200         1.4908           0.0000          0.0000            36.67         2.35          0.1600            0.0000           4.4000       PFind                   None            0.00    0.00    None
 62.3600         1.4878           0.0000          0.0000            31.67         2.03          0.1000            0.0000           0.0000       PFind                   None            0.00    0.00    None
 62.7600         1.4793           0.0000          0.0000            34.17         2.19          0.1600            0.0000           2.7333       PFind                   None            0.00    0.00    None
 64.0200         1.4532           0.0000          0.0000            30.00         1.92          0.0200            0.0000           1.8000       PFind                   None            0.00    0.00    None
 64.1400         1.4507           0.0000          0.0000            61.67         3.95          0.1600            0.0000           2.4667       PFind                   None            0.00    0.00    None
 64.2600         1.4483           0.0000          0.0000            43.33         2.77          0.1600            0.0000           5.2000       PFind                   None            0.00    0.00    None