File: Generating XRD fingerprints/INPUT/Detrital data/G30_pf_RT.txt
Filename:
	C:\Program Files\Thermo Electron\WinXRD\Datafiles\FIEN2\FIEN\G30_RT.pk

File Created:
	February 25, 2021 - 10:49 AM

Specimen Id:
	G30  RT GRINDED

Specimen Name:

Specimen Description:

Comment:
Scan Type: 2Theta Scan
Start Angle: 3 deg.
Stop Angle: 65 deg.
Num Points: 3101
Step Size: 0.02 deg.
Scan Rate: 1.000000
Scan Mode: Continuous
Wavelength: 1.540562
\Kalpha1: 1.540562	\Kalpha2: 1.544390	\Kbeta: 1.392218

Optics:
		Detector:
			 Type: Fixed Slits
		Tube:
			 Type: Fixed Slits

Datas:
Peaks:

Position        Dspace          ESD(P)          Corr.Fact       Intensity       Rel.Int.        FWHM(L)         ESD(L)          Area            Source                  Curve           Strain  CSize   CSize_Source
[deg]           [A]             [deg]           [deg]           [CPS]           [CPS]           [deg]           [deg]           [deg]           [--]                    [--]            [--]    [--]    [--]
  4.8200        18.3182           0.0000          0.0000            59.17         2.55          0.1000            0.0000           0.0000       PFind                   None            0.00    0.00    None
  4.9600        17.8015           0.0000          0.0000            59.17         2.55          0.0000            0.0000           1.1833       PFind                   None            0.00    0.00    None
  5.0800        17.3812           0.0000          0.0000            57.50         2.48          0.1600            0.0000           3.4500       PFind                   None            0.00    0.00    None
  5.2400        16.8509           0.0000          0.0000            56.67         2.44          0.0800            0.0000           5.6667       PFind                   None            0.00    0.00    None
  5.3600        16.4739           0.0000          0.0000            58.33         2.51          0.0600            0.0000           3.5000       PFind                   None            0.00    0.00    None
  5.6800        15.5465           0.0000          0.0000            67.50         2.91          0.0000            0.0000           6.7500       PFind                   None            0.00    0.00    None
  5.9000        14.9672           0.0000          0.0000           139.17         6.00          0.1000            0.0000          16.7000       PFind                   None            0.00    0.00    None
  6.1400        14.3827           0.0000          0.0000           118.33         5.10          0.0200            0.0000          16.5667       PFind                   None            0.00    0.00    None
  6.3200        13.9735           0.0000          0.0000            65.00         2.80          0.0400            0.0000           7.8000       PFind                   None            0.00    0.00    None
  6.5400        13.5039           0.0000          0.0000            53.33         2.30          0.0800            0.0000           1.0667       PFind                   None            0.00    0.00    None
  6.7000        13.1818           0.0000          0.0000            46.67         2.01          0.1000            0.0000           0.0000       PFind                   None            0.00    0.00    None
  6.9600        12.6899           0.0000          0.0000            35.83         1.54          0.0800            0.0000           1.4333       PFind                   None            0.00    0.00    None
  7.0600        12.5104           0.0000          0.0000            54.17         2.33          0.1600            0.0000           2.1667       PFind                   None            0.00    0.00    None
  7.2600        12.1662           0.0000          0.0000            37.50         1.62          0.1200            0.0000           2.2500       PFind                   None            0.00    0.00    None
  7.3800        11.9687           0.0000          0.0000            40.83         1.76          0.1200            0.0000           5.7167       PFind                   None            0.00    0.00    None
  7.5400        11.7150           0.0000          0.0000            40.83         1.76          0.1400            0.0000           0.0000       PFind                   None            0.00    0.00    None
  7.8600        11.2388           0.0000          0.0000            45.83         1.98          0.0400            0.0000           0.9167       PFind                   None            0.00    0.00    None
  8.0400        10.9876           0.0000          0.0000            38.33         1.65          0.1600            0.0000           3.0667       PFind                   None            0.00    0.00    None
  8.2600        10.6954           0.0000          0.0000            52.50         2.26          0.0600            0.0000           2.1000       PFind                   None            0.00    0.00    None
  8.8000        10.0403           0.0000          0.0000           828.33        35.70          0.0200            0.0000          33.1333       PFind                   None            0.00    0.00    None
  9.0800         9.7313           0.0000          0.0000            68.33         2.95          0.0800            0.0000           6.8333       PFind                   None            0.00    0.00    None
  9.2200         9.5838           0.0000          0.0000            47.50         2.05          0.1000            0.0000           1.9000       PFind                   None            0.00    0.00    None
  9.3200         9.4812           0.0000          0.0000            52.50         2.26          0.0400            0.0000           4.2000       PFind                   None            0.00    0.00    None
  9.6000         9.2053           0.0000          0.0000            32.50         1.40          0.1000            0.0000           0.6500       PFind                   None            0.00    0.00    None
  9.6400         9.1672           0.0000          0.0000            36.67         1.58          0.1000            0.0000           2.2000       PFind                   None            0.00    0.00    None
  9.7400         9.0733           0.0000          0.0000            47.50         2.05          0.1200            0.0000           0.9500       PFind                   None            0.00    0.00    None
  9.9000         8.9270           0.0000          0.0000            44.17         1.90          0.1600            0.0000           1.7667       PFind                   None            0.00    0.00    None
 10.0000         8.8380           0.0000          0.0000            46.67         2.01          0.1600            0.0000           2.8000       PFind                   None            0.00    0.00    None
 10.4600         8.4503           0.0000          0.0000           102.50         4.42          0.0600            0.0000           8.2000       PFind                   None            0.00    0.00    None
 10.6600         8.2922           0.0000          0.0000            29.17         1.26          0.1000            0.0000           2.3333       PFind                   None            0.00    0.00    None
 10.9600         8.0659           0.0000          0.0000            41.67         1.80          0.1200            0.0000           2.5000       PFind                   None            0.00    0.00    None
 11.1000         7.9645           0.0000          0.0000            28.33         1.22          0.0800            0.0000           2.8333       PFind                   None            0.00    0.00    None
 11.1800         7.9077           0.0000          0.0000            28.33         1.22          0.0000            0.0000           2.2667       PFind                   None            0.00    0.00    None
 11.3200         7.8102           0.0000          0.0000            26.67         1.15          0.0400            0.0000           2.6667       PFind                   None            0.00    0.00    None
 11.4200         7.7420           0.0000          0.0000            25.00         1.08          0.1000            0.0000           2.0000       PFind                   None            0.00    0.00    None
 11.6400         7.5962           0.0000          0.0000            23.33         1.01          0.0400            0.0000           1.4000       PFind                   None            0.00    0.00    None
 11.7200         7.5445           0.0000          0.0000            30.00         1.29          0.0400            0.0000           0.6000       PFind                   None            0.00    0.00    None
 12.1000         7.3084           0.0000          0.0000           200.83         8.66          0.0000            0.0000          16.0667       PFind                   None            0.00    0.00    None
 12.4000         7.1323           0.0000          0.0000           215.83         9.30          0.0400            0.0000          25.9000       PFind                   None            0.00    0.00    None
 12.6400         6.9974           0.0000          0.0000            39.17         1.69          0.1000            0.0000           0.0000       PFind                   None            0.00    0.00    None
 12.8600         6.8782           0.0000          0.0000            32.50         1.40          0.1000            0.0000           1.9500       PFind                   None            0.00    0.00    None
 13.1200         6.7424           0.0000          0.0000            24.17         1.04          0.1600            0.0000           1.4500       PFind                   None            0.00    0.00    None
 13.2400         6.6816           0.0000          0.0000            33.33         1.44          0.1000            0.0000           0.0000       PFind                   None            0.00    0.00    None
 13.7600         6.4302           0.0000          0.0000           130.00         5.60          0.0600            0.0000          10.4000       PFind                   None            0.00    0.00    None
 14.8400         5.9646           0.0000          0.0000            27.50         1.19          0.1200            0.0000           0.5500       PFind                   None            0.00    0.00    None
 15.1400         5.8471           0.0000          0.0000            25.83         1.11          0.0600            0.0000           0.0000       PFind                   None            0.00    0.00    None
 15.2400         5.8090           0.0000          0.0000            36.67         1.58          0.0000            0.0000           0.0000       PFind                   None            0.00    0.00    None
 16.2800         5.4401           0.0000          0.0000            25.00         1.08          0.0200            0.0000           1.0000       PFind                   None            0.00    0.00    None
 16.6800         5.3106           0.0000          0.0000            23.33         1.01          0.0400            0.0000           0.0000       PFind                   None            0.00    0.00    None
 17.3000         5.1216           0.0000          0.0000            27.50         1.19          0.0000            0.0000           0.0000       PFind                   None            0.00    0.00    None
 17.7400         4.9956           0.0000          0.0000           245.83        10.60          0.1200            0.0000          24.5833       PFind                   None            0.00    0.00    None
 18.3200         4.8387           0.0000          0.0000            51.67         2.23          0.1000            0.0000           3.1000       PFind                   None            0.00    0.00    None
 18.4800         4.7972           0.0000          0.0000            40.83         1.76          0.1200            0.0000           6.5333       PFind                   None            0.00    0.00    None
 18.7200         4.7362           0.0000          0.0000            85.83         3.70          0.0800            0.0000           6.8667       PFind                   None            0.00    0.00    None
 19.0800         4.6476           0.0000          0.0000            24.17         1.04          0.1600            0.0000           1.4500       PFind                   None            0.00    0.00    None
 19.3600         4.5810           0.0000          0.0000            26.67         1.15          0.0600            0.0000           0.0000       PFind                   None            0.00    0.00    None
 19.7400         4.4937           0.0000          0.0000            45.83         1.98          0.0200            0.0000           7.3333       PFind                   None            0.00    0.00    None
 20.1200         4.4097           0.0000          0.0000            25.00         1.08          0.0000            0.0000           0.0000       PFind                   None            0.00    0.00    None
 20.3000         4.3710           0.0000          0.0000            25.83         1.11          0.0000            0.0000           0.0000       PFind                   None            0.00    0.00    None
 20.7600         4.2752           0.0000          0.0000           730.00        31.47          0.0600            0.0000          58.4000       PFind                   None            0.00    0.00    None
 21.5000         4.1297           0.0000          0.0000            26.67         1.15          0.0800            0.0000           2.6667       PFind                   None            0.00    0.00    None
 21.6800         4.0958           0.0000          0.0000            26.67         1.15          0.0400            0.0000           1.0667       PFind                   None            0.00    0.00    None
 21.9800         4.0405           0.0000          0.0000           275.83        11.89          0.1400            0.0000          16.5500       PFind                   None            0.00    0.00    None
 22.3200         3.9798           0.0000          0.0000            27.50         1.19          0.1400            0.0000           0.5500       PFind                   None            0.00    0.00    None
 22.8000         3.8971           0.0000          0.0000            43.33         1.87          0.0200            0.0000           4.3333       PFind                   None            0.00    0.00    None
 23.4400         3.7921           0.0000          0.0000           138.33         5.96          0.0400            0.0000          11.0667       PFind                   None            0.00    0.00    None
 23.6400         3.7604           0.0000          0.0000            26.67         1.15          0.0400            0.0000           0.5333       PFind                   None            0.00    0.00    None
 24.2200         3.6717           0.0000          0.0000            67.50         2.91          0.0200            0.0000           5.4000       PFind                   None            0.00    0.00    None
 24.5400         3.6245           0.0000          0.0000           135.83         5.85          0.0200            0.0000          16.3000       PFind                   None            0.00    0.00    None
 25.0600         3.5505           0.0000          0.0000           171.67         7.40          0.0200            0.0000          17.1667       PFind                   None            0.00    0.00    None
 25.4400         3.4983           0.0000          0.0000            86.67         3.74          0.0200            0.0000          13.8667       PFind                   None            0.00    0.00    None
 26.5400         3.3558           0.0000          0.0000          2320.00       100.00          0.0000            0.0000         232.0000       PFind                   None            0.00    0.00    None
 26.8000         3.3238           0.0000          0.0000           610.00        26.29          0.1000            0.0000          73.2000       PFind                   None            0.00    0.00    None
 27.2000         3.2758           0.0000          0.0000            38.33         1.65          0.1200            0.0000           0.7667       PFind                   None            0.00    0.00    None
 27.4000         3.2524           0.0000          0.0000           664.17        28.63          0.1000            0.0000          26.5667       PFind                   None            0.00    0.00    None
 27.7800         3.2087           0.0000          0.0000           627.50        27.05          0.0600            0.0000          75.3000       PFind                   None            0.00    0.00    None
 28.2200         3.1597           0.0000          0.0000            96.67         4.17          0.0800            0.0000           9.6667       PFind                   None            0.00    0.00    None
 28.5400         3.1250           0.0000          0.0000            51.67         2.23          0.0200            0.0000           8.2667       PFind                   None            0.00    0.00    None
 29.1800         3.0579           0.0000          0.0000            40.83         1.76          0.0400            0.0000           0.8167       PFind                   None            0.00    0.00    None
 29.4000         3.0355           0.0000          0.0000            32.50         1.40          0.0600            0.0000           0.6500       PFind                   None            0.00    0.00    None
 29.7200         3.0035           0.0000          0.0000           110.83         4.78          0.0600            0.0000          13.3000       PFind                   None            0.00    0.00    None
 30.0600         2.9703           0.0000          0.0000            53.33         2.30          0.0000            0.0000           6.4000       PFind                   None            0.00    0.00    None
 30.3800         2.9398           0.0000          0.0000           226.67         9.77          0.0200            0.0000           9.0667       PFind                   None            0.00    0.00    None
 30.7800         2.9025           0.0000          0.0000           110.83         4.78          0.0400            0.0000          13.3000       PFind                   None            0.00    0.00    None
 31.1800         2.8661           0.0000          0.0000            86.67         3.74          0.0600            0.0000          12.1333       PFind                   None            0.00    0.00    None
 31.5000         2.8378           0.0000          0.0000            52.50         2.26          0.1000            0.0000           6.3000       PFind                   None            0.00    0.00    None
 32.0200         2.7928           0.0000          0.0000            60.00         2.59          0.0000            0.0000           9.6000       PFind                   None            0.00    0.00    None
 33.4800         2.6743           0.0000          0.0000            35.83         1.54          0.0400            0.0000           0.0000       PFind                   None            0.00    0.00    None
 33.8600         2.6452           0.0000          0.0000            78.33         3.38          0.0600            0.0000           7.8333       PFind                   None            0.00    0.00    None
 34.4800         2.5990           0.0000          0.0000            76.67         3.30          0.0000            0.0000           9.2000       PFind                   None            0.00    0.00    None
 34.8800         2.5701           0.0000          0.0000            88.33         3.81          0.0800            0.0000          14.1333       PFind                   None            0.00    0.00    None
 35.2400         2.5447           0.0000          0.0000            25.83         1.11          0.0400            0.0000           4.1333       PFind                   None            0.00    0.00    None
 35.4600         2.5294           0.0000          0.0000            90.00         3.88          0.1000            0.0000          10.8000       PFind                   None            0.00    0.00    None
 35.7000         2.5129           0.0000          0.0000            55.83         2.41          0.0600            0.0000           3.3500       PFind                   None            0.00    0.00    None
 36.0400         2.4900           0.0000          0.0000            37.50         1.62          0.1600            0.0000           3.0000       PFind                   None            0.00    0.00    None
 36.4400         2.4636           0.0000          0.0000           140.83         6.07          0.0400            0.0000          19.7167       PFind                   None            0.00    0.00    None
 36.9400         2.4314           0.0000          0.0000            24.17         1.04          0.0200            0.0000           1.4500       PFind                   None            0.00    0.00    None
 37.1400         2.4187           0.0000          0.0000            25.83         1.11          0.1000            0.0000           0.0000       PFind                   None            0.00    0.00    None
 37.5200         2.3951           0.0000          0.0000           204.17         8.80          0.1400            0.0000          20.4167       PFind                   None            0.00    0.00    None
 38.4400         2.3399           0.0000          0.0000            45.83         1.98          0.1200            0.0000           1.8333       PFind                   None            0.00    0.00    None
 38.9000         2.3133           0.0000          0.0000            28.33         1.22          0.0800            0.0000           2.2667       PFind                   None            0.00    0.00    None
 39.0000         2.3076           0.0000          0.0000            23.33         1.01          0.0000            0.0000           0.0000       PFind                   None            0.00    0.00    None
 39.3800         2.2862           0.0000          0.0000           102.50         4.42          0.0800            0.0000           6.1500       PFind                   None            0.00    0.00    None
 39.9000         2.2576           0.0000          0.0000            27.50         1.19          0.0800            0.0000           2.2000       PFind                   None            0.00    0.00    None
 40.1800         2.2425           0.0000          0.0000           100.83         4.35          0.1000            0.0000           6.0500       PFind                   None            0.00    0.00    None
 41.6600         2.1662           0.0000          0.0000            44.17         1.90          0.1000            0.0000           6.1833       PFind                   None            0.00    0.00    None
 41.9000         2.1543           0.0000          0.0000            34.17         1.47          0.0600            0.0000           3.4167       PFind                   None            0.00    0.00    None
 42.3400         2.1329           0.0000          0.0000           220.83         9.52          0.0000            0.0000          13.2500       PFind                   None            0.00    0.00    None
 43.5400         2.0769           0.0000          0.0000            43.33         1.87          0.0200            0.0000           4.3333       PFind                   None            0.00    0.00    None
 43.7200         2.0688           0.0000          0.0000            35.00         1.51          0.0800            0.0000           3.5000       PFind                   None            0.00    0.00    None
 44.3800         2.0395           0.0000          0.0000           210.00         9.05          0.0400            0.0000          33.6000       PFind                   None            0.00    0.00    None
 45.5000         1.9919           0.0000          0.0000           153.33         6.61          0.0800            0.0000          24.5333       PFind                   None            0.00    0.00    None
 45.6800         1.9844           0.0000          0.0000           136.67         5.89          0.0800            0.0000          16.4000       PFind                   None            0.00    0.00    None
 46.5200         1.9506           0.0000          0.0000            27.50         1.19          0.0800            0.0000           1.6500       PFind                   None            0.00    0.00    None
 46.9000         1.9356           0.0000          0.0000            26.67         1.15          0.0000            0.0000           1.0667       PFind                   None            0.00    0.00    None
 47.0800         1.9286           0.0000          0.0000            80.83         3.48          0.0600            0.0000           4.8500       PFind                   None            0.00    0.00    None
 47.8800         1.8983           0.0000          0.0000            36.67         1.58          0.0600            0.0000           4.4000       PFind                   None            0.00    0.00    None
 48.0600         1.8916           0.0000          0.0000            49.17         2.12          0.0800            0.0000           4.9167       PFind                   None            0.00    0.00    None
 48.5800         1.8725           0.0000          0.0000            25.00         1.08          0.1200            0.0000           2.0000       PFind                   None            0.00    0.00    None
 48.7000         1.8682           0.0000          0.0000            24.17         1.04          0.0000            0.0000           0.0000       PFind                   None            0.00    0.00    None
 49.1400         1.8525           0.0000          0.0000            26.67         1.15          0.1200            0.0000           2.1333       PFind                   None            0.00    0.00    None
 49.6800         1.8336           0.0000          0.0000            36.67         1.58          0.1400            0.0000           2.9333       PFind                   None            0.00    0.00    None
 50.0200         1.8220           0.0000          0.0000           325.00        14.01          0.1200            0.0000          26.0000       PFind                   None            0.00    0.00    None
 50.5600         1.8038           0.0000          0.0000            65.83         2.84          0.0000            0.0000           9.2167       PFind                   None            0.00    0.00    None
 51.1400         1.7847           0.0000          0.0000            30.00         1.29          0.0600            0.0000           0.0000       PFind                   None            0.00    0.00    None
 51.4400         1.7749           0.0000          0.0000            35.00         1.51          0.0600            0.0000           4.2000       PFind                   None            0.00    0.00    None
 52.0600         1.7553           0.0000          0.0000            53.33         2.30          0.0000            0.0000           3.2000       PFind                   None            0.00    0.00    None
 52.2000         1.7509           0.0000          0.0000            40.00         1.72          0.0000            0.0000           4.8000       PFind                   None            0.00    0.00    None
 52.4200         1.7440           0.0000          0.0000            29.17         1.26          0.1200            0.0000           0.0000       PFind                   None            0.00    0.00    None
 52.8600         1.7306           0.0000          0.0000            30.00         1.29          0.1200            0.0000           1.2000       PFind                   None            0.00    0.00    None
 53.3200         1.7167           0.0000          0.0000            25.83         1.11          0.1200            0.0000           1.0333       PFind                   None            0.00    0.00    None
 53.5800         1.7090           0.0000          0.0000            81.67         3.52          0.0000            0.0000           6.5333       PFind                   None            0.00    0.00    None
 54.7800         1.6744           0.0000          0.0000           150.00         6.47          0.0400            0.0000           9.0000       PFind                   None            0.00    0.00    None
 54.9200         1.6704           0.0000          0.0000            84.17         3.63          0.1200            0.0000           3.3667       PFind                   None            0.00    0.00    None
 55.1800         1.6632           0.0000          0.0000            36.67         1.58          0.0800            0.0000           4.4000       PFind                   None            0.00    0.00    None
 55.6800         1.6494           0.0000          0.0000            40.00         1.72          0.1600            0.0000           4.8000       PFind                   None            0.00    0.00    None
 55.9000         1.6434           0.0000          0.0000            33.33         1.44          0.1400            0.0000           3.3333       PFind                   None            0.00    0.00    None
 56.0800         1.6386           0.0000          0.0000            36.67         1.58          0.0600            0.0000           1.4667       PFind                   None            0.00    0.00    None
 57.0600         1.6128           0.0000          0.0000            25.83         1.11          0.1200            0.0000           0.0000       PFind                   None            0.00    0.00    None
 57.7400         1.5954           0.0000          0.0000            23.33         1.01          0.0600            0.0000           1.4000       PFind                   None            0.00    0.00    None
 58.6600         1.5725           0.0000          0.0000            24.17         1.04          0.1400            0.0000           2.9000       PFind                   None            0.00    0.00    None
 59.1800         1.5599           0.0000          0.0000            31.67         1.36          0.1600            0.0000           0.0000       PFind                   None            0.00    0.00    None
 59.2800         1.5575           0.0000          0.0000            31.67         1.36          0.1600            0.0000           0.6333       PFind                   None            0.00    0.00    None
 59.8400         1.5443           0.0000          0.0000           205.83         8.87          0.0600            0.0000          20.5833       PFind                   None            0.00    0.00    None
 60.0200         1.5401           0.0000          0.0000           105.83         4.56          0.0800            0.0000          14.8167       PFind                   None            0.00    0.00    None
 60.3000         1.5336           0.0000          0.0000            23.33         1.01          0.0000            0.0000           0.0000       PFind                   None            0.00    0.00    None
 60.3600         1.5322           0.0000          0.0000            23.33         1.01          0.1600            0.0000           0.4667       PFind                   None            0.00    0.00    None
 60.8000         1.5222           0.0000          0.0000            41.67         1.80          0.1200            0.0000           6.6667       PFind                   None            0.00    0.00    None
 61.3800         1.5092           0.0000          0.0000            47.50         2.05          0.0800            0.0000           7.6000       PFind                   None            0.00    0.00    None
 61.6200         1.5039           0.0000          0.0000            47.50         2.05          0.0200            0.0000           6.6500       PFind                   None            0.00    0.00    None
 61.8200         1.4995           0.0000          0.0000            29.17         1.26          0.0600            0.0000           4.6667       PFind                   None            0.00    0.00    None
 61.9800         1.4960           0.0000          0.0000            35.00         1.51          0.0000            0.0000           0.0000       PFind                   None            0.00    0.00    None
 62.2000         1.4913           0.0000          0.0000            23.33         1.01          0.1400            0.0000           1.4000       PFind                   None            0.00    0.00    None
 63.4600         1.4646           0.0000          0.0000            26.67         1.15          0.0600            0.0000           0.0000       PFind                   None            0.00    0.00    None
 63.9600         1.4544           0.0000          0.0000            54.17         2.33          0.0000            0.0000           2.1667       PFind                   None            0.00    0.00    None
 64.1200         1.4512           0.0000          0.0000            44.17         1.90          0.1200            0.0000           1.7667       PFind                   None            0.00    0.00    None