File: Generating XRD fingerprints/INPUT/Detrital data/G48A_pf_FT.txt
Filename:
	C:\Program Files\Thermo Electron\WinXRD\Datafiles\FIEN2\FIEN\G48A_FT.pk

File Created:
	February 25, 2021 - 10:50 AM

Specimen Id:
	G48A FT

Specimen Name:

Specimen Description:

Comment:
Scan Type: 2Theta Scan
Start Angle: 1 deg.
Stop Angle: 65 deg.
Num Points: 3201
Step Size: 0.02 deg.
Scan Rate: 1.000000
Scan Mode: Continuous
Wavelength: 1.540562
\Kalpha1: 1.540562	\Kalpha2: 1.544390	\Kbeta: 1.392218

Optics:
		Detector:
			 Type: Fixed Slits
		Tube:
			 Type: Fixed Slits

Datas:
Peaks:

Position        Dspace          ESD(P)          Corr.Fact       Intensity       Rel.Int.        FWHM(L)         ESD(L)          Area            Source                  Curve           Strain  CSize   CSize_Source
[deg]           [A]             [deg]           [deg]           [CPS]           [CPS]           [deg]           [deg]           [deg]           [--]                    [--]            [--]    [--]    [--]
  2.9600        29.8235           0.0000          0.0000          7141.67       100.00          0.0400            0.0000         285.6667       PFind                   None            0.00    0.00    None
  3.1200        28.2944           0.0000          0.0000           904.17        12.66          0.0000            0.0000           0.0000       PFind                   None            0.00    0.00    None
  3.9200        22.5217           0.0000          0.0000           605.83         8.48          0.1600            0.0000           0.0000       PFind                   None            0.00    0.00    None
  4.1400        21.3253           0.0000          0.0000           680.00         9.52          0.1400            0.0000           0.0000       PFind                   None            0.00    0.00    None
  4.2400        20.8226           0.0000          0.0000           328.33         4.60          0.1600            0.0000           0.0000       PFind                   None            0.00    0.00    None
  4.5200        19.5333           0.0000          0.0000          2454.17        34.36          0.0000            0.0000         343.5833       PFind                   None            0.00    0.00    None
  5.6000        15.7684           0.0000          0.0000           208.33         2.92          0.0800            0.0000          33.3333       PFind                   None            0.00    0.00    None
  5.7800        15.2777           0.0000          0.0000           155.83         2.18          0.0400            0.0000          24.9333       PFind                   None            0.00    0.00    None
  5.8600        15.0693           0.0000          0.0000           156.67         2.19          0.0000            0.0000          25.0667       PFind                   None            0.00    0.00    None
  5.9400        14.8665           0.0000          0.0000           141.67         1.98          0.1600            0.0000          22.6667       PFind                   None            0.00    0.00    None
  6.1600        14.3361           0.0000          0.0000           109.17         1.53          0.0800            0.0000          15.2833       PFind                   None            0.00    0.00    None
  6.3000        14.0178           0.0000          0.0000           139.17         1.95          0.1200            0.0000          11.1333       PFind                   None            0.00    0.00    None
  6.5400        13.5039           0.0000          0.0000           128.33         1.80          0.1600            0.0000           0.0000       PFind                   None            0.00    0.00    None
  6.7400        13.1037           0.0000          0.0000            81.67         1.14          0.1600            0.0000          13.0667       PFind                   None            0.00    0.00    None
  6.8000        12.9882           0.0000          0.0000            60.83         0.85          0.1600            0.0000           9.7333       PFind                   None            0.00    0.00    None
  7.0000        12.6175           0.0000          0.0000            64.17         0.90          0.0800            0.0000           5.1333       PFind                   None            0.00    0.00    None
  7.2000        12.2675           0.0000          0.0000            60.83         0.85          0.1200            0.0000           7.3000       PFind                   None            0.00    0.00    None
  7.3600        12.0011           0.0000          0.0000            68.33         0.96          0.0800            0.0000           4.1000       PFind                   None            0.00    0.00    None
  7.4400        11.8723           0.0000          0.0000            44.17         0.62          0.1600            0.0000           7.0667       PFind                   None            0.00    0.00    None
  7.5800        11.6533           0.0000          0.0000            74.17         1.04          0.0000            0.0000           0.0000       PFind                   None            0.00    0.00    None
  7.6800        11.5018           0.0000          0.0000            45.83         0.64          0.1000            0.0000           1.8333       PFind                   None            0.00    0.00    None
  7.9200        11.1538           0.0000          0.0000            51.67         0.72          0.1600            0.0000           1.0333       PFind                   None            0.00    0.00    None
  8.1600        10.8263           0.0000          0.0000            49.17         0.69          0.1600            0.0000           7.8667       PFind                   None            0.00    0.00    None
  8.2000        10.7735           0.0000          0.0000            50.00         0.70          0.1600            0.0000           6.0000       PFind                   None            0.00    0.00    None
  8.2400        10.7213           0.0000          0.0000            55.00         0.77          0.1600            0.0000           4.4000       PFind                   None            0.00    0.00    None
  8.3800        10.5425           0.0000          0.0000            77.50         1.09          0.1600            0.0000           1.5500       PFind                   None            0.00    0.00    None
  8.8800         9.9500           0.0000          0.0000            52.50         0.74          0.0200            0.0000           5.2500       PFind                   None            0.00    0.00    None
  9.2000         9.6046           0.0000          0.0000            66.67         0.93          0.1600            0.0000          10.6667       PFind                   None            0.00    0.00    None
  9.3200         9.4812           0.0000          0.0000            66.67         0.93          0.1000            0.0000          10.6667       PFind                   None            0.00    0.00    None
  9.5200         9.2825           0.0000          0.0000            70.00         0.98          0.1600            0.0000           5.6000       PFind                   None            0.00    0.00    None
  9.7200         9.0919           0.0000          0.0000            38.33         0.54          0.1600            0.0000           5.3667       PFind                   None            0.00    0.00    None
  9.8800         8.9451           0.0000          0.0000            42.50         0.60          0.1400            0.0000           3.4000       PFind                   None            0.00    0.00    None
  9.9800         8.8557           0.0000          0.0000            59.17         0.83          0.1600            0.0000           3.5500       PFind                   None            0.00    0.00    None
 10.1400         8.7163           0.0000          0.0000            40.00         0.56          0.1400            0.0000           2.4000       PFind                   None            0.00    0.00    None
 10.3600         8.5317           0.0000          0.0000            47.50         0.67          0.1600            0.0000           3.8000       PFind                   None            0.00    0.00    None
 10.4600         8.4503           0.0000          0.0000            36.67         0.51          0.1600            0.0000           1.4667       PFind                   None            0.00    0.00    None
 10.8000         8.1850           0.0000          0.0000            39.17         0.55          0.0200            0.0000           0.0000       PFind                   None            0.00    0.00    None
 10.8800         8.1250           0.0000          0.0000            39.17         0.55          0.0200            0.0000           0.0000       PFind                   None            0.00    0.00    None
 11.0200         8.0221           0.0000          0.0000            45.00         0.63          0.0400            0.0000           0.0000       PFind                   None            0.00    0.00    None
 11.1800         7.9077           0.0000          0.0000            35.00         0.49          0.1600            0.0000           2.8000       PFind                   None            0.00    0.00    None
 11.4400         7.7285           0.0000          0.0000            45.00         0.63          0.1600            0.0000           0.9000       PFind                   None            0.00    0.00    None
 12.0200         7.3569           0.0000          0.0000           130.00         1.82          0.1000            0.0000          20.8000       PFind                   None            0.00    0.00    None
 12.5000         7.0754           0.0000          0.0000            41.67         0.58          0.1000            0.0000           6.6667       PFind                   None            0.00    0.00    None
 12.5800         7.0306           0.0000          0.0000            41.67         0.58          0.0200            0.0000           6.6667       PFind                   None            0.00    0.00    None
 12.7400         6.9427           0.0000          0.0000            29.17         0.41          0.0400            0.0000           0.5833       PFind                   None            0.00    0.00    None
 12.9800         6.8148           0.0000          0.0000            40.00         0.56          0.0400            0.0000           4.0000       PFind                   None            0.00    0.00    None
 13.1600         6.7220           0.0000          0.0000            32.50         0.46          0.0600            0.0000           0.6500       PFind                   None            0.00    0.00    None
 13.3000         6.6516           0.0000          0.0000            40.83         0.57          0.1000            0.0000           0.0000       PFind                   None            0.00    0.00    None
 13.4600         6.5729           0.0000          0.0000            41.67         0.58          0.0600            0.0000           5.0000       PFind                   None            0.00    0.00    None
 13.6200         6.4960           0.0000          0.0000            55.00         0.77          0.1600            0.0000           8.8000       PFind                   None            0.00    0.00    None
 13.6800         6.4677           0.0000          0.0000            60.83         0.85          0.1200            0.0000           4.8667       PFind                   None            0.00    0.00    None
 14.0600         6.2937           0.0000          0.0000            31.67         0.44          0.1600            0.0000           0.6333       PFind                   None            0.00    0.00    None
 14.8400         5.9646           0.0000          0.0000            36.67         0.51          0.1600            0.0000           0.0000       PFind                   None            0.00    0.00    None
 15.3200         5.7788           0.0000          0.0000           355.83         4.98          0.1600            0.0000          56.9333       PFind                   None            0.00    0.00    None
 16.2200         5.4601           0.0000          0.0000            29.17         0.41          0.0800            0.0000           0.0000       PFind                   None            0.00    0.00    None
 16.6400         5.3232           0.0000          0.0000            31.67         0.44          0.1400            0.0000           5.0667       PFind                   None            0.00    0.00    None
 16.9800         5.2174           0.0000          0.0000            73.33         1.03          0.0800            0.0000           5.8667       PFind                   None            0.00    0.00    None
 18.0000         4.9240           0.0000          0.0000            32.50         0.46          0.0800            0.0000           1.3000       PFind                   None            0.00    0.00    None
 18.1600         4.8810           0.0000          0.0000            29.17         0.41          0.0000            0.0000           2.3333       PFind                   None            0.00    0.00    None
 19.2000         4.6189           0.0000          0.0000            30.00         0.42          0.0200            0.0000           1.8000       PFind                   None            0.00    0.00    None
 20.9800         4.2308           0.0000          0.0000            58.33         0.82          0.1600            0.0000           7.0000       PFind                   None            0.00    0.00    None
 21.5000         4.1297           0.0000          0.0000            42.50         0.60          0.0200            0.0000           4.2500       PFind                   None            0.00    0.00    None
 21.7600         4.0809           0.0000          0.0000            67.50         0.95          0.0600            0.0000          10.8000       PFind                   None            0.00    0.00    None
 21.9400         4.0478           0.0000          0.0000            63.33         0.89          0.0200            0.0000          10.1333       PFind                   None            0.00    0.00    None
 22.8200         3.8937           0.0000          0.0000            37.50         0.53          0.1600            0.0000           3.0000       PFind                   None            0.00    0.00    None
 22.8600         3.8870           0.0000          0.0000            43.33         0.61          0.1400            0.0000           0.8667       PFind                   None            0.00    0.00    None
 22.9200         3.8769           0.0000          0.0000            42.50         0.60          0.0400            0.0000           3.4000       PFind                   None            0.00    0.00    None
 23.1000         3.8471           0.0000          0.0000            45.83         0.64          0.1200            0.0000           0.0000       PFind                   None            0.00    0.00    None
 24.0400         3.6988           0.0000          0.0000           162.50         2.28          0.0600            0.0000          22.7500       PFind                   None            0.00    0.00    None
 25.2000         3.5311           0.0000          0.0000           182.50         2.56          0.0800            0.0000          21.9000       PFind                   None            0.00    0.00    None
 26.0200         3.4216           0.0000          0.0000            62.50         0.88          0.0800            0.0000           7.5000       PFind                   None            0.00    0.00    None
 26.1200         3.4088           0.0000          0.0000            50.00         0.70          0.1600            0.0000           8.0000       PFind                   None            0.00    0.00    None
 26.7200         3.3336           0.0000          0.0000            82.50         1.16          0.1600            0.0000           9.9000       PFind                   None            0.00    0.00    None
 26.8600         3.3165           0.0000          0.0000            30.83         0.43          0.1000            0.0000           2.4667       PFind                   None            0.00    0.00    None
 27.4800         3.2431           0.0000          0.0000           143.33         2.01          0.0200            0.0000          22.9333       PFind                   None            0.00    0.00    None
 27.7400         3.2133           0.0000          0.0000           412.50         5.78          0.1600            0.0000          66.0000       PFind                   None            0.00    0.00    None
 28.2800         3.1531           0.0000          0.0000           209.17         2.93          0.1400            0.0000          33.4667       PFind                   None            0.00    0.00    None
 28.6200         3.1164           0.0000          0.0000           125.83         1.76          0.1600            0.0000          20.1333       PFind                   None            0.00    0.00    None
 29.7600         2.9996           0.0000          0.0000           940.83        13.17          0.0000            0.0000         150.5333       PFind                   None            0.00    0.00    None
 30.4800         2.9304           0.0000          0.0000            85.00         1.19          0.0000            0.0000          13.6000       PFind                   None            0.00    0.00    None
 30.7000         2.9099           0.0000          0.0000           118.33         1.66          0.0800            0.0000          18.9333       PFind                   None            0.00    0.00    None
 31.0200         2.8806           0.0000          0.0000           735.83        10.30          0.0000            0.0000          73.5833       PFind                   None            0.00    0.00    None
 31.7400         2.8168           0.0000          0.0000           191.67         2.68          0.1600            0.0000          30.6667       PFind                   None            0.00    0.00    None
 32.2400         2.7743           0.0000          0.0000            30.83         0.43          0.1200            0.0000           0.6167       PFind                   None            0.00    0.00    None
 32.9800         2.7137           0.0000          0.0000           138.33         1.94          0.0800            0.0000          22.1333       PFind                   None            0.00    0.00    None
 33.2200         2.6947           0.0000          0.0000            89.17         1.25          0.0800            0.0000          14.2667       PFind                   None            0.00    0.00    None
 33.3400         2.6852           0.0000          0.0000            73.33         1.03          0.1600            0.0000          11.7333       PFind                   None            0.00    0.00    None
 33.5000         2.6728           0.0000          0.0000            98.33         1.38          0.0600            0.0000          11.8000       PFind                   None            0.00    0.00    None
 33.9000         2.6421           0.0000          0.0000            76.67         1.07          0.0200            0.0000           6.1333       PFind                   None            0.00    0.00    None
 34.0400         2.6316           0.0000          0.0000            75.83         1.06          0.1000            0.0000          12.1333       PFind                   None            0.00    0.00    None
 34.3600         2.6078           0.0000          0.0000            95.00         1.33          0.0600            0.0000          15.2000       PFind                   None            0.00    0.00    None
 34.7000         2.5830           0.0000          0.0000            45.00         0.63          0.1400            0.0000           4.5000       PFind                   None            0.00    0.00    None
 35.0000         2.5616           0.0000          0.0000            59.17         0.83          0.0800            0.0000           9.4667       PFind                   None            0.00    0.00    None
 35.2400         2.5447           0.0000          0.0000            68.33         0.96          0.0400            0.0000          10.9333       PFind                   None            0.00    0.00    None
 36.1000         2.4860           0.0000          0.0000            38.33         0.54          0.0600            0.0000           0.0000       PFind                   None            0.00    0.00    None
 36.1800         2.4807           0.0000          0.0000            37.50         0.53          0.0200            0.0000           4.5000       PFind                   None            0.00    0.00    None
 37.5600         2.3927           0.0000          0.0000           137.50         1.93          0.0200            0.0000          13.7500       PFind                   None            0.00    0.00    None
 38.0800         2.3612           0.0000          0.0000            82.50         1.16          0.0200            0.0000          13.2000       PFind                   None            0.00    0.00    None
 38.6800         2.3259           0.0000          0.0000           169.17         2.37          0.1200            0.0000          27.0667       PFind                   None            0.00    0.00    None
 39.1600         2.2985           0.0000          0.0000            30.00         0.42          0.0000            0.0000           4.2000       PFind                   None            0.00    0.00    None
 39.6600         2.2707           0.0000          0.0000           189.17         2.65          0.1600            0.0000          30.2667       PFind                   None            0.00    0.00    None
 40.0800         2.2478           0.0000          0.0000            33.33         0.47          0.0800            0.0000           1.3333       PFind                   None            0.00    0.00    None
 40.5400         2.2234           0.0000          0.0000            70.00         0.98          0.0000            0.0000          11.2000       PFind                   None            0.00    0.00    None
 40.8200         2.2088           0.0000          0.0000            71.67         1.00          0.0200            0.0000          10.0333       PFind                   None            0.00    0.00    None
 41.6800         2.1652           0.0000          0.0000            36.67         0.51          0.1600            0.0000           1.4667       PFind                   None            0.00    0.00    None
 42.3400         2.1329           0.0000          0.0000            30.83         0.43          0.1400            0.0000           0.6167       PFind                   None            0.00    0.00    None
 42.6600         2.1177           0.0000          0.0000            60.00         0.84          0.1200            0.0000           8.4000       PFind                   None            0.00    0.00    None
 42.8200         2.1101           0.0000          0.0000            31.67         0.44          0.1200            0.0000           1.9000       PFind                   None            0.00    0.00    None
 43.0800         2.0980           0.0000          0.0000            30.83         0.43          0.1600            0.0000           0.6167       PFind                   None            0.00    0.00    None
 43.4000         2.0833           0.0000          0.0000            54.17         0.76          0.1000            0.0000           5.4167       PFind                   None            0.00    0.00    None
 44.8200         2.0205           0.0000          0.0000            73.33         1.03          0.1200            0.0000          11.7333       PFind                   None            0.00    0.00    None
 45.0600         2.0103           0.0000          0.0000            55.83         0.78          0.1600            0.0000           5.5833       PFind                   None            0.00    0.00    None
 45.2600         2.0019           0.0000          0.0000            35.00         0.49          0.1200            0.0000           1.4000       PFind                   None            0.00    0.00    None
 45.5400         1.9902           0.0000          0.0000            87.50         1.23          0.0400            0.0000          12.2500       PFind                   None            0.00    0.00    None
 45.9000         1.9754           0.0000          0.0000            47.50         0.67          0.1000            0.0000           3.8000       PFind                   None            0.00    0.00    None
 46.1000         1.9673           0.0000          0.0000            37.50         0.53          0.1600            0.0000           0.7500       PFind                   None            0.00    0.00    None
 46.6600         1.9450           0.0000          0.0000            30.00         0.42          0.1200            0.0000           0.6000       PFind                   None            0.00    0.00    None
 47.9600         1.8953           0.0000          0.0000            53.33         0.75          0.1600            0.0000           3.2000       PFind                   None            0.00    0.00    None
 48.2000         1.8864           0.0000          0.0000            49.17         0.69          0.0800            0.0000           7.8667       PFind                   None            0.00    0.00    None
 48.2600         1.8842           0.0000          0.0000            56.67         0.79          0.1600            0.0000           9.0667       PFind                   None            0.00    0.00    None
 48.7200         1.8675           0.0000          0.0000           112.50         1.58          0.1400            0.0000          18.0000       PFind                   None            0.00    0.00    None
 51.1200         1.7853           0.0000          0.0000            48.33         0.68          0.1600            0.0000           0.9667       PFind                   None            0.00    0.00    None
 51.2000         1.7827           0.0000          0.0000            45.83         0.64          0.0000            0.0000           7.3333       PFind                   None            0.00    0.00    None
 51.3800         1.7769           0.0000          0.0000            45.00         0.63          0.1600            0.0000           5.4000       PFind                   None            0.00    0.00    None
 51.5800         1.7705           0.0000          0.0000            34.17         0.48          0.0600            0.0000           5.4667       PFind                   None            0.00    0.00    None
 52.8600         1.7306           0.0000          0.0000            37.50         0.53          0.1600            0.0000           6.0000       PFind                   None            0.00    0.00    None
 52.9800         1.7269           0.0000          0.0000            69.17         0.97          0.1600            0.0000          11.0667       PFind                   None            0.00    0.00    None
 53.2600         1.7185           0.0000          0.0000           196.67         2.75          0.0000            0.0000          27.5333       PFind                   None            0.00    0.00    None
 53.7200         1.7049           0.0000          0.0000            65.00         0.91          0.1600            0.0000           7.8000       PFind                   None            0.00    0.00    None
 54.2200         1.6903           0.0000          0.0000            66.67         0.93          0.1200            0.0000           8.0000       PFind                   None            0.00    0.00    None
 54.3200         1.6874           0.0000          0.0000            57.50         0.81          0.1600            0.0000           9.2000       PFind                   None            0.00    0.00    None
 55.3000         1.6598           0.0000          0.0000            75.00         1.05          0.0200            0.0000           4.5000       PFind                   None            0.00    0.00    None
 55.4400         1.6560           0.0000          0.0000            69.17         0.97          0.0000            0.0000           5.5333       PFind                   None            0.00    0.00    None
 55.5800         1.6521           0.0000          0.0000            82.50         1.16          0.0800            0.0000           6.6000       PFind                   None            0.00    0.00    None
 55.7000         1.6489           0.0000          0.0000            61.67         0.86          0.1400            0.0000           3.7000       PFind                   None            0.00    0.00    None
 56.4400         1.6290           0.0000          0.0000            30.00         0.42          0.1000            0.0000           3.0000       PFind                   None            0.00    0.00    None
 57.8800         1.5918           0.0000          0.0000            83.33         1.17          0.0000            0.0000          10.0000       PFind                   None            0.00    0.00    None
 57.9800         1.5893           0.0000          0.0000            82.50         1.16          0.0000            0.0000          11.5500       PFind                   None            0.00    0.00    None
 58.4200         1.5784           0.0000          0.0000            40.83         0.57          0.1600            0.0000           6.5333       PFind                   None            0.00    0.00    None
 58.9000         1.5667           0.0000          0.0000            61.67         0.86          0.0000            0.0000           9.8667       PFind                   None            0.00    0.00    None
 59.2800         1.5575           0.0000          0.0000            39.17         0.55          0.0800            0.0000           5.4833       PFind                   None            0.00    0.00    None
 61.7600         1.5008           0.0000          0.0000            45.00         0.63          0.1600            0.0000           5.4000       PFind                   None            0.00    0.00    None
 62.1600         1.4921           0.0000          0.0000            49.17         0.69          0.1200            0.0000           4.9167       PFind                   None            0.00    0.00    None
 62.3000         1.4891           0.0000          0.0000            45.83         0.64          0.1600            0.0000           4.5833       PFind                   None            0.00    0.00    None
 63.0200         1.4738           0.0000          0.0000           156.67         2.19          0.1600            0.0000          18.8000       PFind                   None            0.00    0.00    None
 63.5400         1.4630           0.0000          0.0000            31.67         0.44          0.1000            0.0000           0.0000       PFind                   None            0.00    0.00    None
 63.6000         1.4618           0.0000          0.0000            35.00         0.49          0.1200            0.0000           0.7000       PFind                   None            0.00    0.00    None
 63.8000         1.4577           0.0000          0.0000            36.67         0.51          0.1200            0.0000           0.0000       PFind                   None            0.00    0.00    None
 64.0400         1.4528           0.0000          0.0000            35.00         0.49          0.1400            0.0000           2.8000       PFind                   None            0.00    0.00    None
 64.6600         1.4403           0.0000          0.0000            68.33         0.96          0.0800            0.0000           2.7333       PFind                   None            0.00    0.00    None