File: Generating XRD fingerprints/INPUT/Detrital data/GG_11A_pf_SFT.txt
Filename:
	C:\Program Files\Thermo Electron\WinXRD\Datafiles\FIEN2\GEO\GG_11A_SFT.pk

File Created:
	February 25, 2021 - 10:21 AM

Specimen Id:
	GG_11A_SFT

Specimen Name:

Specimen Description:

Comment:
Scan Type: 2Theta Scan
Start Angle: 3 deg.
Stop Angle: 65 deg.
Num Points: 3101
Step Size: 0.02 deg.
Scan Rate: 1.000000
Scan Mode: Continuous
Wavelength: 1.540562
\Kalpha1: 1.540562	\Kalpha2: 1.544390	\Kbeta: 1.392218

Optics:
		Detector:
			 Type: Fixed Slits
		Tube:
			 Type: Fixed Slits

Datas:
Peaks:

Position        Dspace          ESD(P)          Corr.Fact       Intensity       Rel.Int.        FWHM(L)         ESD(L)          Area            Source                  Curve           Strain  CSize   CSize_Source
[deg]           [A]             [deg]           [deg]           [CPS]           [CPS]           [deg]           [deg]           [deg]           [--]                    [--]            [--]    [--]    [--]
  4.7000        18.7856           0.0000          0.0000            40.83         1.51          0.0800            0.0000           3.2667       PFind                   None            0.00    0.00    None
  4.7400        18.6272           0.0000          0.0000            49.17         1.82          0.1400            0.0000           0.0000       PFind                   None            0.00    0.00    None
  5.0200        17.5888           0.0000          0.0000            46.67         1.72          0.0000            0.0000           0.9333       PFind                   None            0.00    0.00    None
  5.2000        16.9804           0.0000          0.0000            44.17         1.63          0.0400            0.0000           0.0000       PFind                   None            0.00    0.00    None
  5.4600        16.1724           0.0000          0.0000            25.83         0.95          0.0800            0.0000           1.0333       PFind                   None            0.00    0.00    None
  5.5400        15.9390           0.0000          0.0000            26.67         0.99          0.1200            0.0000           1.0667       PFind                   None            0.00    0.00    None
  5.6200        15.7123           0.0000          0.0000            52.50         1.94          0.0200            0.0000           1.0500       PFind                   None            0.00    0.00    None
  5.9000        14.9672           0.0000          0.0000            57.50         2.12          0.0200            0.0000           9.2000       PFind                   None            0.00    0.00    None
  6.2800        14.0624           0.0000          0.0000           610.83        22.57          0.0800            0.0000          97.7333       PFind                   None            0.00    0.00    None
  6.7400        13.1037           0.0000          0.0000           119.17         4.40          0.0600            0.0000          19.0667       PFind                   None            0.00    0.00    None
  6.9600        12.6899           0.0000          0.0000            80.83         2.99          0.1600            0.0000          12.9333       PFind                   None            0.00    0.00    None
  7.0200        12.5816           0.0000          0.0000            85.83         3.17          0.1400            0.0000           6.8667       PFind                   None            0.00    0.00    None
  7.3800        11.9687           0.0000          0.0000            55.00         2.03          0.0400            0.0000           4.4000       PFind                   None            0.00    0.00    None
  7.4200        11.9042           0.0000          0.0000            61.67         2.28          0.1600            0.0000           2.4667       PFind                   None            0.00    0.00    None
  7.6400        11.5619           0.0000          0.0000            42.50         1.57          0.0000            0.0000           3.4000       PFind                   None            0.00    0.00    None
  7.8800        11.2103           0.0000          0.0000            40.83         1.51          0.1000            0.0000           1.6333       PFind                   None            0.00    0.00    None
  8.0600        10.9604           0.0000          0.0000            53.33         1.97          0.0200            0.0000           0.0000       PFind                   None            0.00    0.00    None
  8.9400         9.8834           0.0000          0.0000           922.50        34.08          0.1600            0.0000         147.6000       PFind                   None            0.00    0.00    None
  9.6000         9.2053           0.0000          0.0000           190.83         7.05          0.1000            0.0000          22.9000       PFind                   None            0.00    0.00    None
  9.9000         8.9270           0.0000          0.0000            37.50         1.39          0.1600            0.0000           3.7500       PFind                   None            0.00    0.00    None
 10.2600         8.6146           0.0000          0.0000            23.33         0.86          0.0800            0.0000           0.0000       PFind                   None            0.00    0.00    None
 10.6200         8.3234           0.0000          0.0000           211.67         7.82          0.1600            0.0000          33.8667       PFind                   None            0.00    0.00    None
 11.1200         7.9502           0.0000          0.0000            29.17         1.08          0.0000            0.0000           1.7500       PFind                   None            0.00    0.00    None
 11.2200         7.8796           0.0000          0.0000            25.00         0.92          0.0400            0.0000           0.0000       PFind                   None            0.00    0.00    None
 11.4800         7.7017           0.0000          0.0000            25.00         0.92          0.0600            0.0000           1.5000       PFind                   None            0.00    0.00    None
 11.7600         7.5189           0.0000          0.0000            39.17         1.45          0.1600            0.0000           6.2667       PFind                   None            0.00    0.00    None
 12.3400         7.1668           0.0000          0.0000          1930.00        71.31          0.0000            0.0000         270.2000       PFind                   None            0.00    0.00    None
 12.5600         7.0418           0.0000          0.0000          1304.17        48.18          0.0400            0.0000         208.6667       PFind                   None            0.00    0.00    None
 13.1600         6.7220           0.0000          0.0000            32.50         1.20          0.1400            0.0000           1.3000       PFind                   None            0.00    0.00    None
 13.3200         6.6417           0.0000          0.0000            34.17         1.26          0.1200            0.0000           0.0000       PFind                   None            0.00    0.00    None
 13.4800         6.5632           0.0000          0.0000            50.83         1.88          0.1400            0.0000           1.0167       PFind                   None            0.00    0.00    None
 13.7200         6.4489           0.0000          0.0000            38.33         1.42          0.0400            0.0000           5.3667       PFind                   None            0.00    0.00    None
 13.9800         6.3295           0.0000          0.0000            64.17         2.37          0.0200            0.0000           7.7000       PFind                   None            0.00    0.00    None
 14.5600         6.0787           0.0000          0.0000            22.50         0.83          0.1000            0.0000           3.6000       PFind                   None            0.00    0.00    None
 14.6200         6.0539           0.0000          0.0000            25.00         0.92          0.0800            0.0000           2.0000       PFind                   None            0.00    0.00    None
 15.0600         5.8780           0.0000          0.0000            25.00         0.92          0.1000            0.0000           1.0000       PFind                   None            0.00    0.00    None
 15.2000         5.8241           0.0000          0.0000            27.50         1.02          0.1400            0.0000           0.0000       PFind                   None            0.00    0.00    None
 15.5200         5.7048           0.0000          0.0000            20.00         0.74          0.0800            0.0000           0.4000       PFind                   None            0.00    0.00    None
 15.6800         5.6469           0.0000          0.0000            20.83         0.77          0.0200            0.0000           0.8333       PFind                   None            0.00    0.00    None
 15.8600         5.5832           0.0000          0.0000            23.33         0.86          0.0200            0.0000           0.9333       PFind                   None            0.00    0.00    None
 16.1800         5.4735           0.0000          0.0000            24.17         0.89          0.0200            0.0000           0.9667       PFind                   None            0.00    0.00    None
 16.7600         5.2854           0.0000          0.0000            31.67         1.17          0.1600            0.0000           0.0000       PFind                   None            0.00    0.00    None
 17.1800         5.1571           0.0000          0.0000            25.00         0.92          0.0600            0.0000           0.5000       PFind                   None            0.00    0.00    None
 17.3000         5.1216           0.0000          0.0000            17.50         0.65          0.0800            0.0000           0.3500       PFind                   None            0.00    0.00    None
 17.4800         5.0693           0.0000          0.0000            21.67         0.80          0.1200            0.0000           0.0000       PFind                   None            0.00    0.00    None
 17.9400         4.9403           0.0000          0.0000           345.83        12.78          0.0400            0.0000          48.4167       PFind                   None            0.00    0.00    None
 18.9200         4.6866           0.0000          0.0000           455.00        16.81          0.0400            0.0000          63.7000       PFind                   None            0.00    0.00    None
 19.7600         4.4892           0.0000          0.0000            40.83         1.51          0.0200            0.0000           3.2667       PFind                   None            0.00    0.00    None
 20.1400         4.4054           0.0000          0.0000            34.17         1.26          0.1600            0.0000           0.0000       PFind                   None            0.00    0.00    None
 20.3800         4.3540           0.0000          0.0000            24.17         0.89          0.0000            0.0000           0.9667       PFind                   None            0.00    0.00    None
 20.6000         4.3080           0.0000          0.0000            18.33         0.68          0.1000            0.0000           0.0000       PFind                   None            0.00    0.00    None
 21.0000         4.2268           0.0000          0.0000           120.00         4.43          0.1600            0.0000          16.8000       PFind                   None            0.00    0.00    None
 21.2800         4.1719           0.0000          0.0000            30.00         1.11          0.1200            0.0000           1.2000       PFind                   None            0.00    0.00    None
 21.5200         4.1259           0.0000          0.0000            25.00         0.92          0.0400            0.0000           0.0000       PFind                   None            0.00    0.00    None
 21.7200         4.0883           0.0000          0.0000            24.17         0.89          0.1400            0.0000           0.0000       PFind                   None            0.00    0.00    None
 21.8600         4.0625           0.0000          0.0000            23.33         0.86          0.0000            0.0000           0.9333       PFind                   None            0.00    0.00    None
 22.1600         4.0081           0.0000          0.0000           116.67         4.31          0.0000            0.0000          18.6667       PFind                   None            0.00    0.00    None
 22.5600         3.9380           0.0000          0.0000            23.33         0.86          0.0400            0.0000           0.9333       PFind                   None            0.00    0.00    None
 22.6400         3.9242           0.0000          0.0000            20.00         0.74          0.1400            0.0000           0.4000       PFind                   None            0.00    0.00    None
 22.9800         3.8669           0.0000          0.0000            28.33         1.05          0.0400            0.0000           2.8333       PFind                   None            0.00    0.00    None
 23.1200         3.8438           0.0000          0.0000            30.00         1.11          0.0600            0.0000           2.4000       PFind                   None            0.00    0.00    None
 23.6800         3.7542           0.0000          0.0000            99.17         3.66          0.1600            0.0000          15.8667       PFind                   None            0.00    0.00    None
 23.8800         3.7232           0.0000          0.0000            21.67         0.80          0.0400            0.0000           0.8667       PFind                   None            0.00    0.00    None
 24.7200         3.5985           0.0000          0.0000          1087.50        40.18          0.0200            0.0000         174.0000       PFind                   None            0.00    0.00    None
 25.2400         3.5256           0.0000          0.0000           826.67        30.54          0.1600            0.0000         132.2667       PFind                   None            0.00    0.00    None
 26.7600         3.3287           0.0000          0.0000           665.00        24.57          0.1600            0.0000         106.4000       PFind                   None            0.00    0.00    None
 26.9800         3.3020           0.0000          0.0000           769.17        28.42          0.1600            0.0000         123.0667       PFind                   None            0.00    0.00    None
 27.6000         3.2292           0.0000          0.0000          1384.17        51.14          0.0000            0.0000         110.7333       PFind                   None            0.00    0.00    None
 28.0200         3.1818           0.0000          0.0000           382.50        14.13          0.0800            0.0000          61.2000       PFind                   None            0.00    0.00    None
 28.7200         3.1058           0.0000          0.0000           236.67         8.74          0.0000            0.0000          37.8667       PFind                   None            0.00    0.00    None
 29.9800         2.9781           0.0000          0.0000            64.17         2.37          0.0000            0.0000          10.2667       PFind                   None            0.00    0.00    None
 30.2200         2.9550           0.0000          0.0000            41.67         1.54          0.1600            0.0000           5.0000       PFind                   None            0.00    0.00    None
 30.3000         2.9474           0.0000          0.0000            45.00         1.66          0.1400            0.0000           3.6000       PFind                   None            0.00    0.00    None
 30.5800         2.9210           0.0000          0.0000            62.50         2.31          0.1400            0.0000           6.2500       PFind                   None            0.00    0.00    None
 30.9400         2.8878           0.0000          0.0000            35.83         1.32          0.1600            0.0000           5.0167       PFind                   None            0.00    0.00    None
 31.3400         2.8519           0.0000          0.0000           102.50         3.79          0.0600            0.0000          12.3000       PFind                   None            0.00    0.00    None
 31.6800         2.8220           0.0000          0.0000           147.50         5.45          0.0000            0.0000          23.6000       PFind                   None            0.00    0.00    None
 32.2400         2.7743           0.0000          0.0000            60.00         2.22          0.0400            0.0000           9.6000       PFind                   None            0.00    0.00    None
 32.5400         2.7494           0.0000          0.0000            22.50         0.83          0.0200            0.0000           0.9000       PFind                   None            0.00    0.00    None
 32.8800         2.7217           0.0000          0.0000            20.00         0.74          0.1200            0.0000           1.2000       PFind                   None            0.00    0.00    None
 33.2600         2.6915           0.0000          0.0000            35.00         1.29          0.1600            0.0000           4.2000       PFind                   None            0.00    0.00    None
 33.5600         2.6681           0.0000          0.0000            29.17         1.08          0.0000            0.0000           3.5000       PFind                   None            0.00    0.00    None
 33.9200         2.6406           0.0000          0.0000            19.17         0.71          0.0600            0.0000           0.0000       PFind                   None            0.00    0.00    None
 34.0800         2.6286           0.0000          0.0000            24.17         0.89          0.1000            0.0000           0.0000       PFind                   None            0.00    0.00    None
 34.2600         2.6152           0.0000          0.0000            21.67         0.80          0.0600            0.0000           0.0000       PFind                   None            0.00    0.00    None
 34.4600         2.6005           0.0000          0.0000            28.33         1.05          0.1000            0.0000           2.2667       PFind                   None            0.00    0.00    None
 34.6400         2.5874           0.0000          0.0000            41.67         1.54          0.0400            0.0000           2.5000       PFind                   None            0.00    0.00    None
 35.1000         2.5545           0.0000          0.0000            47.50         1.75          0.0000            0.0000           4.7500       PFind                   None            0.00    0.00    None
 35.4000         2.5335           0.0000          0.0000            40.83         1.51          0.0400            0.0000           1.6333       PFind                   None            0.00    0.00    None
 35.7400         2.5102           0.0000          0.0000            54.17         2.00          0.0400            0.0000           7.5833       PFind                   None            0.00    0.00    None
 36.1600         2.4820           0.0000          0.0000            60.00         2.22          0.0800            0.0000           4.8000       PFind                   None            0.00    0.00    None
 36.6000         2.4532           0.0000          0.0000            57.50         2.12          0.0000            0.0000           8.0500       PFind                   None            0.00    0.00    None
 36.9000         2.4339           0.0000          0.0000            35.83         1.32          0.0800            0.0000           0.0000       PFind                   None            0.00    0.00    None
 37.3200         2.4075           0.0000          0.0000            53.33         1.97          0.0000            0.0000           6.4000       PFind                   None            0.00    0.00    None
 37.4000         2.4025           0.0000          0.0000            43.33         1.60          0.0000            0.0000           6.9333       PFind                   None            0.00    0.00    None
 37.7200         2.3829           0.0000          0.0000            33.33         1.23          0.1000            0.0000           2.6667       PFind                   None            0.00    0.00    None
 38.2400         2.3517           0.0000          0.0000          2706.67       100.00          0.0800            0.0000         433.0667       PFind                   None            0.00    0.00    None
 38.7800         2.3201           0.0000          0.0000            29.17         1.08          0.1200            0.0000           0.5833       PFind                   None            0.00    0.00    None
 38.9000         2.3133           0.0000          0.0000            35.83         1.32          0.1600            0.0000           1.4333       PFind                   None            0.00    0.00    None
 39.5800         2.2751           0.0000          0.0000            25.83         0.95          0.1600            0.0000           1.5500       PFind                   None            0.00    0.00    None
 39.7000         2.2685           0.0000          0.0000            26.67         0.99          0.0000            0.0000           2.6667       PFind                   None            0.00    0.00    None
 39.8800         2.2587           0.0000          0.0000            28.33         1.05          0.0600            0.0000           2.2667       PFind                   None            0.00    0.00    None
 39.9400         2.2554           0.0000          0.0000            30.83         1.14          0.0400            0.0000           1.8500       PFind                   None            0.00    0.00    None
 40.1800         2.2425           0.0000          0.0000            19.17         0.71          0.1000            0.0000           0.7667       PFind                   None            0.00    0.00    None
 40.3800         2.2318           0.0000          0.0000            26.67         0.99          0.1400            0.0000           2.6667       PFind                   None            0.00    0.00    None
 40.5200         2.2244           0.0000          0.0000            23.33         0.86          0.1600            0.0000           1.4000       PFind                   None            0.00    0.00    None
 40.7000         2.2150           0.0000          0.0000            18.33         0.68          0.0800            0.0000           0.7333       PFind                   None            0.00    0.00    None
 41.0200         2.1985           0.0000          0.0000            19.17         0.71          0.1000            0.0000           0.0000       PFind                   None            0.00    0.00    None
 41.8600         2.1563           0.0000          0.0000            56.67         2.09          0.0400            0.0000           5.6667       PFind                   None            0.00    0.00    None
 42.4800         2.1262           0.0000          0.0000            61.67         2.28          0.1200            0.0000           8.6333       PFind                   None            0.00    0.00    None
 42.9400         2.1045           0.0000          0.0000            33.33         1.23          0.0800            0.0000           0.0000       PFind                   None            0.00    0.00    None
 43.5000         2.0787           0.0000          0.0000            19.17         0.71          0.0000            0.0000           0.3833       PFind                   None            0.00    0.00    None
 43.6400         2.0724           0.0000          0.0000            19.17         0.71          0.0200            0.0000           0.7667       PFind                   None            0.00    0.00    None
 44.4000         2.0386           0.0000          0.0000          1682.50        62.16          0.0200            0.0000         235.5500       PFind                   None            0.00    0.00    None
 44.8400         2.0197           0.0000          0.0000            46.67         1.72          0.0400            0.0000           3.7333       PFind                   None            0.00    0.00    None
 45.0600         2.0103           0.0000          0.0000            48.33         1.79          0.0800            0.0000           5.8000       PFind                   None            0.00    0.00    None
 45.1800         2.0052           0.0000          0.0000            31.67         1.17          0.1600            0.0000           3.1667       PFind                   None            0.00    0.00    None
 45.6600         1.9853           0.0000          0.0000           200.83         7.42          0.1200            0.0000          32.1333       PFind                   None            0.00    0.00    None
 46.2800         1.9601           0.0000          0.0000            24.17         0.89          0.0000            0.0000           0.9667       PFind                   None            0.00    0.00    None
 46.4000         1.9553           0.0000          0.0000            23.33         0.86          0.1000            0.0000           0.0000       PFind                   None            0.00    0.00    None
 46.5200         1.9506           0.0000          0.0000            18.33         0.68          0.1000            0.0000           0.3667       PFind                   None            0.00    0.00    None
 47.2800         1.9210           0.0000          0.0000            24.17         0.89          0.0400            0.0000           1.9333       PFind                   None            0.00    0.00    None
 47.3600         1.9179           0.0000          0.0000            23.33         0.86          0.1200            0.0000           1.8667       PFind                   None            0.00    0.00    None
 47.6600         1.9065           0.0000          0.0000            21.67         0.80          0.0800            0.0000           0.8667       PFind                   None            0.00    0.00    None
 47.9400         1.8960           0.0000          0.0000            17.50         0.65          0.0800            0.0000           0.3500       PFind                   None            0.00    0.00    None
 48.1200         1.8894           0.0000          0.0000            20.00         0.74          0.0000            0.0000           2.0000       PFind                   None            0.00    0.00    None
 48.3600         1.8805           0.0000          0.0000            31.67         1.17          0.1200            0.0000           3.8000       PFind                   None            0.00    0.00    None
 48.6000         1.8718           0.0000          0.0000            21.67         0.80          0.1600            0.0000           0.0000       PFind                   None            0.00    0.00    None
 48.7800         1.8653           0.0000          0.0000            19.17         0.71          0.0600            0.0000           0.0000       PFind                   None            0.00    0.00    None
 49.3400         1.8455           0.0000          0.0000            23.33         0.86          0.0800            0.0000           0.9333       PFind                   None            0.00    0.00    None
 50.2600         1.8138           0.0000          0.0000            69.17         2.56          0.0400            0.0000          11.0667       PFind                   None            0.00    0.00    None
 50.5600         1.8038           0.0000          0.0000            26.67         0.99          0.0800            0.0000           4.2667       PFind                   None            0.00    0.00    None
 50.6800         1.7998           0.0000          0.0000            37.50         1.39          0.1600            0.0000           3.0000       PFind                   None            0.00    0.00    None
 51.2800         1.7801           0.0000          0.0000            22.50         0.83          0.0400            0.0000           1.3500       PFind                   None            0.00    0.00    None
 52.4800         1.7422           0.0000          0.0000            21.67         0.80          0.1600            0.0000           0.8667       PFind                   None            0.00    0.00    None
 52.6200         1.7379           0.0000          0.0000            25.00         0.92          0.0200            0.0000           3.0000       PFind                   None            0.00    0.00    None
 52.7000         1.7354           0.0000          0.0000            24.17         0.89          0.0600            0.0000           1.4500       PFind                   None            0.00    0.00    None
 52.9800         1.7269           0.0000          0.0000            20.00         0.74          0.1000            0.0000           0.4000       PFind                   None            0.00    0.00    None
 53.2000         1.7203           0.0000          0.0000            20.83         0.77          0.0400            0.0000           0.8333       PFind                   None            0.00    0.00    None
 53.4400         1.7131           0.0000          0.0000            21.67         0.80          0.0400            0.0000           0.4333       PFind                   None            0.00    0.00    None
 54.9600         1.6693           0.0000          0.0000            28.33         1.05          0.0800            0.0000           2.8333       PFind                   None            0.00    0.00    None
 55.4000         1.6571           0.0000          0.0000            20.83         0.77          0.0200            0.0000           0.0000       PFind                   None            0.00    0.00    None
 55.7600         1.6472           0.0000          0.0000            23.33         0.86          0.1400            0.0000           2.8000       PFind                   None            0.00    0.00    None
 55.9200         1.6429           0.0000          0.0000            23.33         0.86          0.0400            0.0000           3.2667       PFind                   None            0.00    0.00    None
 55.9800         1.6413           0.0000          0.0000            25.00         0.92          0.1600            0.0000           2.0000       PFind                   None            0.00    0.00    None
 56.1000         1.6381           0.0000          0.0000            21.67         0.80          0.0000            0.0000           3.0333       PFind                   None            0.00    0.00    None
 56.5600         1.6258           0.0000          0.0000            19.17         0.71          0.0000            0.0000           0.3833       PFind                   None            0.00    0.00    None
 57.7400         1.5954           0.0000          0.0000            21.67         0.80          0.0000            0.0000           0.4333       PFind                   None            0.00    0.00    None
 58.4600         1.5774           0.0000          0.0000            18.33         0.68          0.1000            0.0000           0.0000       PFind                   None            0.00    0.00    None
 58.8000         1.5691           0.0000          0.0000            24.17         0.89          0.1000            0.0000           1.4500       PFind                   None            0.00    0.00    None
 58.9600         1.5652           0.0000          0.0000            19.17         0.71          0.0200            0.0000           0.3833       PFind                   None            0.00    0.00    None
 59.1800         1.5599           0.0000          0.0000            19.17         0.71          0.0200            0.0000           0.0000       PFind                   None            0.00    0.00    None
 60.0600         1.5392           0.0000          0.0000            51.67         1.91          0.0000            0.0000           5.1667       PFind                   None            0.00    0.00    None
 60.2200         1.5355           0.0000          0.0000            28.33         1.05          0.0000            0.0000           2.8333       PFind                   None            0.00    0.00    None
 60.8600         1.5208           0.0000          0.0000            21.67         0.80          0.1200            0.0000           1.3000       PFind                   None            0.00    0.00    None
 60.9800         1.5181           0.0000          0.0000            22.50         0.83          0.0800            0.0000           2.2500       PFind                   None            0.00    0.00    None
 61.6000         1.5043           0.0000          0.0000            36.67         1.35          0.1600            0.0000           3.6667       PFind                   None            0.00    0.00    None
 61.8200         1.4995           0.0000          0.0000            20.83         0.77          0.0600            0.0000           1.6667       PFind                   None            0.00    0.00    None
 62.0800         1.4938           0.0000          0.0000            19.17         0.71          0.1400            0.0000           1.9167       PFind                   None            0.00    0.00    None
 62.2400         1.4904           0.0000          0.0000            17.50         0.65          0.0400            0.0000           0.7000       PFind                   None            0.00    0.00    None
 64.5200         1.4431           0.0000          0.0000          1290.83        47.69          0.0400            0.0000         103.2667       PFind                   None            0.00    0.00    None
 64.7000         1.4395           0.0000          0.0000           648.33        23.95          0.0800            0.0000          51.8667       PFind                   None            0.00    0.00    None