File: Generating XRD fingerprints/INPUT/Detrital data/GG_14_pf_SFT.txt
Filename:
	C:\Program Files\Thermo Electron\WinXRD\Datafiles\FIEN2\GEO\GG_14_SFT.pk

File Created:
	February 25, 2021 - 10:24 AM

Specimen Id:
	GG_14_SFT

Specimen Name:

Specimen Description:

Comment:
Scan Type: 2Theta Scan
Start Angle: 3 deg.
Stop Angle: 65 deg.
Num Points: 3101
Step Size: 0.02 deg.
Scan Rate: 1.000000
Scan Mode: Continuous
Wavelength: 1.540562
\Kalpha1: 1.540562	\Kalpha2: 1.544390	\Kbeta: 1.392218

Optics:
		Detector:
			 Type: Fixed Slits
		Tube:
			 Type: Fixed Slits

Datas:
Peaks:

Position        Dspace          ESD(P)          Corr.Fact       Intensity       Rel.Int.        FWHM(L)         ESD(L)          Area            Source                  Curve           Strain  CSize   CSize_Source
[deg]           [A]             [deg]           [deg]           [CPS]           [CPS]           [deg]           [deg]           [deg]           [--]                    [--]            [--]    [--]    [--]
  4.6600        18.9468           0.0000          0.0000            54.17         3.34          0.1600            0.0000           2.1667       PFind                   None            0.00    0.00    None
  4.7800        18.4714           0.0000          0.0000            43.33         2.67          0.0400            0.0000           0.8667       PFind                   None            0.00    0.00    None
  4.9000        18.0193           0.0000          0.0000            35.83         2.21          0.1200            0.0000           5.0167       PFind                   None            0.00    0.00    None
  5.0800        17.3812           0.0000          0.0000            46.67         2.88          0.0600            0.0000           2.8000       PFind                   None            0.00    0.00    None
  5.3200        16.5976           0.0000          0.0000            43.33         2.67          0.0800            0.0000           5.2000       PFind                   None            0.00    0.00    None
  5.4800        16.1134           0.0000          0.0000            58.33         3.60          0.1600            0.0000           3.5000       PFind                   None            0.00    0.00    None
  5.7400        15.3841           0.0000          0.0000            36.67         2.26          0.0600            0.0000           2.2000       PFind                   None            0.00    0.00    None
  6.0400        14.6206           0.0000          0.0000            57.50         3.54          0.1000            0.0000           9.2000       PFind                   None            0.00    0.00    None
  6.2200        14.1979           0.0000          0.0000            93.33         5.75          0.1600            0.0000          13.0667       PFind                   None            0.00    0.00    None
  6.4800        13.6288           0.0000          0.0000            65.00         4.01          0.1200            0.0000           7.8000       PFind                   None            0.00    0.00    None
  6.6800        13.2212           0.0000          0.0000            47.50         2.93          0.1400            0.0000           3.8000       PFind                   None            0.00    0.00    None
  6.7400        13.1037           0.0000          0.0000            46.67         2.88          0.1400            0.0000           0.0000       PFind                   None            0.00    0.00    None
  6.8400        12.9123           0.0000          0.0000            35.83         2.21          0.1400            0.0000           3.5833       PFind                   None            0.00    0.00    None
  7.0200        12.5816           0.0000          0.0000            49.17         3.03          0.0800            0.0000           0.9833       PFind                   None            0.00    0.00    None
  7.1600        12.3359           0.0000          0.0000            40.83         2.52          0.1000            0.0000           4.0833       PFind                   None            0.00    0.00    None
  7.4000        11.9364           0.0000          0.0000            32.50         2.00          0.1600            0.0000           1.3000       PFind                   None            0.00    0.00    None
  8.1600        10.8263           0.0000          0.0000            33.33         2.05          0.0200            0.0000           0.0000       PFind                   None            0.00    0.00    None
  8.5000        10.3940           0.0000          0.0000            44.17         2.72          0.0400            0.0000           0.0000       PFind                   None            0.00    0.00    None
  8.6400        10.2259           0.0000          0.0000            30.00         1.85          0.0600            0.0000           4.2000       PFind                   None            0.00    0.00    None
  8.7400        10.1091           0.0000          0.0000            45.83         2.82          0.1600            0.0000           0.9167       PFind                   None            0.00    0.00    None
  9.1000         9.7099           0.0000          0.0000           120.83         7.45          0.0600            0.0000           9.6667       PFind                   None            0.00    0.00    None
  9.3800         9.4207           0.0000          0.0000            35.83         2.21          0.1000            0.0000           0.7167       PFind                   None            0.00    0.00    None
 10.0800         8.7680           0.0000          0.0000            30.83         1.90          0.1400            0.0000           2.4667       PFind                   None            0.00    0.00    None
 10.7400         8.2306           0.0000          0.0000            60.83         3.75          0.1600            0.0000           3.6500       PFind                   None            0.00    0.00    None
 12.4000         7.1323           0.0000          0.0000           182.50        11.25          0.1000            0.0000          18.2500       PFind                   None            0.00    0.00    None
 12.7200         6.9536           0.0000          0.0000           124.17         7.65          0.0200            0.0000          17.3833       PFind                   None            0.00    0.00    None
 14.1400         6.2583           0.0000          0.0000            90.83         5.60          0.1200            0.0000           7.2667       PFind                   None            0.00    0.00    None
 18.0600         4.9078           0.0000          0.0000            58.33         3.60          0.0800            0.0000           7.0000       PFind                   None            0.00    0.00    None
 18.8000         4.7162           0.0000          0.0000            43.33         2.67          0.0800            0.0000           6.9333       PFind                   None            0.00    0.00    None
 19.0000         4.6670           0.0000          0.0000           103.33         6.37          0.0800            0.0000          10.3333       PFind                   None            0.00    0.00    None
 19.9200         4.4535           0.0000          0.0000            68.33         4.21          0.0600            0.0000           8.2000       PFind                   None            0.00    0.00    None
 20.0800         4.4184           0.0000          0.0000            76.67         4.73          0.1400            0.0000           7.6667       PFind                   None            0.00    0.00    None
 20.9600         4.2348           0.0000          0.0000           192.50        11.86          0.0800            0.0000          23.1000       PFind                   None            0.00    0.00    None
 21.1000         4.2070           0.0000          0.0000           240.00        14.79          0.0600            0.0000          33.6000       PFind                   None            0.00    0.00    None
 22.2600         3.9904           0.0000          0.0000           154.17         9.50          0.1000            0.0000          12.3333       PFind                   None            0.00    0.00    None
 22.5800         3.9345           0.0000          0.0000            63.33         3.90          0.1600            0.0000           5.0667       PFind                   None            0.00    0.00    None
 23.1400         3.8406           0.0000          0.0000            68.33         4.21          0.1600            0.0000           9.5667       PFind                   None            0.00    0.00    None
 23.6600         3.7573           0.0000          0.0000            88.33         5.44          0.1000            0.0000          12.3667       PFind                   None            0.00    0.00    None
 24.3600         3.6509           0.0000          0.0000            75.83         4.67          0.1000            0.0000           7.5833       PFind                   None            0.00    0.00    None
 24.6000         3.6158           0.0000          0.0000            83.33         5.14          0.1400            0.0000          13.3333       PFind                   None            0.00    0.00    None
 24.8600         3.5786           0.0000          0.0000           134.17         8.27          0.0200            0.0000          21.4667       PFind                   None            0.00    0.00    None
 25.3200         3.5146           0.0000          0.0000           170.83        10.53          0.0200            0.0000          23.9167       PFind                   None            0.00    0.00    None
 25.7000         3.4635           0.0000          0.0000           109.17         6.73          0.1400            0.0000          13.1000       PFind                   None            0.00    0.00    None
 26.7200         3.3336           0.0000          0.0000          1574.17        97.02          0.0200            0.0000         157.4167       PFind                   None            0.00    0.00    None
 26.8600         3.3165           0.0000          0.0000          1622.50       100.00          0.0400            0.0000         259.6000       PFind                   None            0.00    0.00    None
 27.3200         3.2617           0.0000          0.0000            50.83         3.13          0.0400            0.0000           3.0500       PFind                   None            0.00    0.00    None
 27.6000         3.2292           0.0000          0.0000           221.67        13.66          0.1600            0.0000          31.0333       PFind                   None            0.00    0.00    None
 28.1400         3.1685           0.0000          0.0000           675.83        41.65          0.1400            0.0000          81.1000       PFind                   None            0.00    0.00    None
 28.7200         3.1058           0.0000          0.0000           214.17        13.20          0.1400            0.0000          21.4167       PFind                   None            0.00    0.00    None
 30.2400         2.9531           0.0000          0.0000           129.17         7.96          0.0800            0.0000          20.6667       PFind                   None            0.00    0.00    None
 30.6600         2.9136           0.0000          0.0000           121.67         7.50          0.0800            0.0000          19.4667       PFind                   None            0.00    0.00    None
 31.0800         2.8751           0.0000          0.0000            73.33         4.52          0.1600            0.0000           5.8667       PFind                   None            0.00    0.00    None
 31.5000         2.8378           0.0000          0.0000            69.17         4.26          0.1000            0.0000          11.0667       PFind                   None            0.00    0.00    None
 31.7000         2.8203           0.0000          0.0000            60.00         3.70          0.1400            0.0000           9.6000       PFind                   None            0.00    0.00    None
 32.3400         2.7659           0.0000          0.0000            59.17         3.65          0.1400            0.0000           8.2833       PFind                   None            0.00    0.00    None
 33.3000         2.6884           0.0000          0.0000            48.33         2.98          0.0400            0.0000           6.7667       PFind                   None            0.00    0.00    None
 34.7800         2.5773           0.0000          0.0000            86.67         5.34          0.1200            0.0000           6.9333       PFind                   None            0.00    0.00    None
 35.2800         2.5419           0.0000          0.0000            95.00         5.86          0.1200            0.0000          15.2000       PFind                   None            0.00    0.00    None
 35.7200         2.5116           0.0000          0.0000           146.67         9.04          0.0000            0.0000          14.6667       PFind                   None            0.00    0.00    None
 36.7800         2.4416           0.0000          0.0000           240.83        14.84          0.0600            0.0000          38.5333       PFind                   None            0.00    0.00    None
 37.5600         2.3927           0.0000          0.0000            39.17         2.41          0.0200            0.0000           2.3500       PFind                   None            0.00    0.00    None
 37.7200         2.3829           0.0000          0.0000            45.00         2.77          0.1600            0.0000           7.2000       PFind                   None            0.00    0.00    None
 37.9400         2.3696           0.0000          0.0000            69.17         4.26          0.1200            0.0000          11.0667       PFind                   None            0.00    0.00    None
 38.1800         2.3552           0.0000          0.0000           149.17         9.19          0.0400            0.0000           5.9667       PFind                   None            0.00    0.00    None
 39.0200         2.3064           0.0000          0.0000            50.00         3.08          0.0000            0.0000           0.0000       PFind                   None            0.00    0.00    None
 39.1600         2.2985           0.0000          0.0000            33.33         2.05          0.0200            0.0000           0.0000       PFind                   None            0.00    0.00    None
 39.6600         2.2707           0.0000          0.0000           204.17        12.58          0.1200            0.0000          16.3333       PFind                   None            0.00    0.00    None
 40.5000         2.2255           0.0000          0.0000            79.17         4.88          0.1400            0.0000           6.3333       PFind                   None            0.00    0.00    None
 41.4800         2.1751           0.0000          0.0000            44.17         2.72          0.0800            0.0000           1.7667       PFind                   None            0.00    0.00    None
 42.0000         2.1494           0.0000          0.0000            82.50         5.08          0.0800            0.0000           4.9500       PFind                   None            0.00    0.00    None
 42.6600         2.1177           0.0000          0.0000           191.67        11.81          0.0000            0.0000          26.8333       PFind                   None            0.00    0.00    None
 43.0200         2.1008           0.0000          0.0000            31.67         1.95          0.1000            0.0000           4.4333       PFind                   None            0.00    0.00    None
 44.3600         2.0404           0.0000          0.0000           143.33         8.83          0.0000            0.0000           8.6000       PFind                   None            0.00    0.00    None
 45.3000         2.0002           0.0000          0.0000            45.83         2.82          0.1400            0.0000           6.4167       PFind                   None            0.00    0.00    None
 45.7600         1.9812           0.0000          0.0000            71.67         4.42          0.1400            0.0000          11.4667       PFind                   None            0.00    0.00    None
 45.8800         1.9763           0.0000          0.0000            74.17         4.57          0.1600            0.0000          11.8667       PFind                   None            0.00    0.00    None
 45.9400         1.9738           0.0000          0.0000            80.00         4.93          0.0800            0.0000          12.8000       PFind                   None            0.00    0.00    None
 46.3000         1.9593           0.0000          0.0000            38.33         2.36          0.0200            0.0000           3.0667       PFind                   None            0.00    0.00    None
 47.1800         1.9248           0.0000          0.0000            44.17         2.72          0.1600            0.0000           1.7667       PFind                   None            0.00    0.00    None
 47.3000         1.9202           0.0000          0.0000            35.00         2.16          0.1000            0.0000           3.5000       PFind                   None            0.00    0.00    None
 48.1800         1.8872           0.0000          0.0000            32.50         2.00          0.0800            0.0000           2.6000       PFind                   None            0.00    0.00    None
 48.3400         1.8813           0.0000          0.0000            40.83         2.52          0.1600            0.0000           3.2667       PFind                   None            0.00    0.00    None
 49.4200         1.8427           0.0000          0.0000            50.00         3.08          0.0000            0.0000           2.0000       PFind                   None            0.00    0.00    None
 49.5600         1.8378           0.0000          0.0000            30.83         1.90          0.0600            0.0000           1.8500       PFind                   None            0.00    0.00    None
 50.0200         1.8220           0.0000          0.0000            65.00         4.01          0.1400            0.0000           6.5000       PFind                   None            0.00    0.00    None
 50.1800         1.8165           0.0000          0.0000            63.33         3.90          0.1600            0.0000          10.1333       PFind                   None            0.00    0.00    None
 50.3600         1.8105           0.0000          0.0000           275.83        17.00          0.0600            0.0000          27.5833       PFind                   None            0.00    0.00    None
 50.8200         1.7951           0.0000          0.0000            43.33         2.67          0.1000            0.0000           6.9333       PFind                   None            0.00    0.00    None
 50.9400         1.7912           0.0000          0.0000            49.17         3.03          0.0800            0.0000           0.9833       PFind                   None            0.00    0.00    None
 51.4800         1.7737           0.0000          0.0000            35.00         2.16          0.1400            0.0000           5.6000       PFind                   None            0.00    0.00    None
 52.3400         1.7465           0.0000          0.0000            30.00         1.85          0.0600            0.0000           0.6000       PFind                   None            0.00    0.00    None
 52.5000         1.7416           0.0000          0.0000            30.00         1.85          0.0600            0.0000           0.6000       PFind                   None            0.00    0.00    None
 52.6800         1.7361           0.0000          0.0000            41.67         2.57          0.1000            0.0000           2.5000       PFind                   None            0.00    0.00    None
 52.9000         1.7293           0.0000          0.0000            30.00         1.85          0.1400            0.0000           0.0000       PFind                   None            0.00    0.00    None
 53.4000         1.7143           0.0000          0.0000            37.50         2.31          0.0200            0.0000           1.5000       PFind                   None            0.00    0.00    None
 54.9800         1.6687           0.0000          0.0000           136.67         8.42          0.1400            0.0000          13.6667       PFind                   None            0.00    0.00    None
 55.1200         1.6648           0.0000          0.0000           113.33         6.99          0.1000            0.0000          15.8667       PFind                   None            0.00    0.00    None
 55.4600         1.6554           0.0000          0.0000            39.17         2.41          0.1600            0.0000           4.7000       PFind                   None            0.00    0.00    None
 56.0000         1.6407           0.0000          0.0000            60.83         3.75          0.0800            0.0000           8.5167       PFind                   None            0.00    0.00    None
 56.1400         1.6370           0.0000          0.0000            52.50         3.24          0.0600            0.0000           5.2500       PFind                   None            0.00    0.00    None
 58.7000         1.5715           0.0000          0.0000            35.83         2.21          0.0400            0.0000           0.7167       PFind                   None            0.00    0.00    None
 58.8600         1.5677           0.0000          0.0000            32.50         2.00          0.1000            0.0000           0.6500       PFind                   None            0.00    0.00    None
 59.4400         1.5537           0.0000          0.0000            63.33         3.90          0.1000            0.0000           6.3333       PFind                   None            0.00    0.00    None
 59.5400         1.5514           0.0000          0.0000            38.33         2.36          0.1600            0.0000           3.0667       PFind                   None            0.00    0.00    None
 60.1600         1.5368           0.0000          0.0000           245.00        15.10          0.1200            0.0000          39.2000       PFind                   None            0.00    0.00    None
 61.0000         1.5177           0.0000          0.0000            30.83         1.90          0.0200            0.0000           3.0833       PFind                   None            0.00    0.00    None
 61.4800         1.5070           0.0000          0.0000            35.83         2.21          0.0000            0.0000           0.7167       PFind                   None            0.00    0.00    None
 61.6600         1.5030           0.0000          0.0000            50.83         3.13          0.1600            0.0000           3.0500       PFind                   None            0.00    0.00    None
 61.8600         1.4986           0.0000          0.0000            47.50         2.93          0.0600            0.0000           6.6500       PFind                   None            0.00    0.00    None
 62.0200         1.4951           0.0000          0.0000            60.00         3.70          0.1600            0.0000           8.4000       PFind                   None            0.00    0.00    None
 64.2200         1.4491           0.0000          0.0000            42.50         2.62          0.0600            0.0000           2.5500       PFind                   None            0.00    0.00    None
 64.4800         1.4439           0.0000          0.0000            91.67         5.65          0.1000            0.0000           5.5000       PFind                   None            0.00    0.00    None
 64.6800         1.4399           0.0000          0.0000            50.83         3.13          0.1600            0.0000           3.0500       PFind                   None            0.00    0.00    None