File: Generating XRD fingerprints/INPUT/Detrital data/GG_22_pf_SFT.txt
Filename:
	C:\Program Files\Thermo Electron\WinXRD\Datafiles\FIEN2\GEO\GG_22_SFT.pk

File Created:
	February 25, 2021 - 10:30 AM

Specimen Id:
	GG 22 SFT

Specimen Name:

Specimen Description:

Comment:
Scan Type: 2Theta Scan
Start Angle: 3 deg.
Stop Angle: 65 deg.
Num Points: 3101
Step Size: 0.02 deg.
Scan Rate: 1.000000
Scan Mode: Continuous
Wavelength: 1.540562
\Kalpha1: 1.540562	\Kalpha2: 1.544390	\Kbeta: 1.392218

Optics:
		Detector:
			 Type: Fixed Slits
		Tube:
			 Type: Fixed Slits

Datas:
Peaks:

Position        Dspace          ESD(P)          Corr.Fact       Intensity       Rel.Int.        FWHM(L)         ESD(L)          Area            Source                  Curve           Strain  CSize   CSize_Source
[deg]           [A]             [deg]           [deg]           [CPS]           [CPS]           [deg]           [deg]           [deg]           [--]                    [--]            [--]    [--]    [--]
 19.5200         4.5439           0.0000          0.0000            25.00         2.12          0.0400            0.0000           0.5000       PFind                   None            0.00    0.00    None
 20.5600         4.3163           0.0000          0.0000            25.00         2.12          0.1000            0.0000           1.5000       PFind                   None            0.00    0.00    None
 29.4200         3.0335           0.0000          0.0000            25.00         2.12          0.0200            0.0000           0.0000       PFind                   None            0.00    0.00    None
 41.0400         2.1974           0.0000          0.0000            25.00         2.12          0.1600            0.0000           1.0000       PFind                   None            0.00    0.00    None
 41.4400         2.1772           0.0000          0.0000            25.00         2.12          0.1000            0.0000           0.5000       PFind                   None            0.00    0.00    None
 41.6000         2.1692           0.0000          0.0000            25.00         2.12          0.1600            0.0000           1.5000       PFind                   None            0.00    0.00    None
 58.9200         1.5662           0.0000          0.0000            25.00         2.12          0.0600            0.0000           2.0000       PFind                   None            0.00    0.00    None
 13.2000         6.7018           0.0000          0.0000            25.00         2.12          0.1400            0.0000           0.0000       PFind                   None            0.00    0.00    None
 13.8000         6.4117           0.0000          0.0000            26.67         2.26          0.1200            0.0000           2.6667       PFind                   None            0.00    0.00    None
 34.1200         2.6256           0.0000          0.0000            26.67         2.26          0.1000            0.0000           2.6667       PFind                   None            0.00    0.00    None
 40.1200         2.2457           0.0000          0.0000            26.67         2.26          0.0200            0.0000           1.6000       PFind                   None            0.00    0.00    None
 48.7000         1.8682           0.0000          0.0000            26.67         2.26          0.0800            0.0000           1.0667       PFind                   None            0.00    0.00    None
 58.7800         1.5696           0.0000          0.0000            26.67         2.26          0.0200            0.0000           1.0667       PFind                   None            0.00    0.00    None
 62.9600         1.4751           0.0000          0.0000            26.67         2.26          0.0800            0.0000           2.6667       PFind                   None            0.00    0.00    None
  8.0600        10.9604           0.0000          0.0000            27.50         2.33          0.0400            0.0000           2.7500       PFind                   None            0.00    0.00    None
 52.8600         1.7306           0.0000          0.0000            27.50         2.33          0.1200            0.0000           0.5500       PFind                   None            0.00    0.00    None
 15.2000         5.8241           0.0000          0.0000            28.33         2.40          0.1200            0.0000           2.2667       PFind                   None            0.00    0.00    None
  7.9800        11.0701           0.0000          0.0000            28.33         2.40          0.1200            0.0000           1.1333       PFind                   None            0.00    0.00    None
 39.1000         2.3019           0.0000          0.0000            28.33         2.40          0.0800            0.0000           0.5667       PFind                   None            0.00    0.00    None
 63.9800         1.4540           0.0000          0.0000            28.33         2.40          0.1400            0.0000           1.1333       PFind                   None            0.00    0.00    None
 44.3400         2.0413           0.0000          0.0000            29.17         2.47          0.0200            0.0000           0.0000       PFind                   None            0.00    0.00    None
 47.4200         1.9156           0.0000          0.0000            29.17         2.47          0.0200            0.0000           2.9167       PFind                   None            0.00    0.00    None
 52.4200         1.7440           0.0000          0.0000            29.17         2.47          0.0800            0.0000           2.3333       PFind                   None            0.00    0.00    None
 16.0000         5.5347           0.0000          0.0000            30.00         2.54          0.1000            0.0000           1.2000       PFind                   None            0.00    0.00    None
 26.1200         3.4088           0.0000          0.0000            30.00         2.54          0.1600            0.0000           0.0000       PFind                   None            0.00    0.00    None
 52.3400         1.7465           0.0000          0.0000            30.00         2.54          0.0400            0.0000           3.0000       PFind                   None            0.00    0.00    None
 11.2400         7.8656           0.0000          0.0000            30.83         2.61          0.1200            0.0000           0.6167       PFind                   None            0.00    0.00    None
 13.4200         6.5924           0.0000          0.0000            30.83         2.61          0.0600            0.0000           0.6167       PFind                   None            0.00    0.00    None
 22.5000         3.9483           0.0000          0.0000            30.83         2.61          0.1600            0.0000           3.0833       PFind                   None            0.00    0.00    None
 52.7000         1.7354           0.0000          0.0000            30.83         2.61          0.0400            0.0000           0.6167       PFind                   None            0.00    0.00    None
  7.2600        12.1662           0.0000          0.0000            31.67         2.69          0.0400            0.0000           5.0667       PFind                   None            0.00    0.00    None
 10.3000         8.5812           0.0000          0.0000            31.67         2.69          0.0800            0.0000           1.9000       PFind                   None            0.00    0.00    None
 48.5000         1.8754           0.0000          0.0000            31.67         2.69          0.1000            0.0000           2.5333       PFind                   None            0.00    0.00    None
 59.5400         1.5514           0.0000          0.0000            31.67         2.69          0.1400            0.0000           0.6333       PFind                   None            0.00    0.00    None
 60.7800         1.5226           0.0000          0.0000            31.67         2.69          0.1600            0.0000           3.8000       PFind                   None            0.00    0.00    None
 43.7000         2.0697           0.0000          0.0000            31.67         2.69          0.1000            0.0000           2.5333       PFind                   None            0.00    0.00    None
 43.0800         2.0980           0.0000          0.0000            32.50         2.76          0.1600            0.0000           2.6000       PFind                   None            0.00    0.00    None
 47.2800         1.9210           0.0000          0.0000            32.50         2.76          0.0000            0.0000           4.5500       PFind                   None            0.00    0.00    None
 49.3600         1.8448           0.0000          0.0000            32.50         2.76          0.0800            0.0000           1.3000       PFind                   None            0.00    0.00    None
 55.5000         1.6543           0.0000          0.0000            32.50         2.76          0.0800            0.0000           3.9000       PFind                   None            0.00    0.00    None
  7.7600        11.3834           0.0000          0.0000            32.50         2.76          0.1600            0.0000           0.6500       PFind                   None            0.00    0.00    None
  8.2000        10.7735           0.0000          0.0000            33.33         2.83          0.1200            0.0000           2.6667       PFind                   None            0.00    0.00    None
 37.1800         2.4162           0.0000          0.0000            33.33         2.83          0.0600            0.0000           2.0000       PFind                   None            0.00    0.00    None
 61.0600         1.5163           0.0000          0.0000            33.33         2.83          0.1200            0.0000           5.3333       PFind                   None            0.00    0.00    None
 36.1000         2.4860           0.0000          0.0000            34.17         2.90          0.0600            0.0000           2.0500       PFind                   None            0.00    0.00    None
 61.9200         1.4973           0.0000          0.0000            34.17         2.90          0.0200            0.0000           5.4667       PFind                   None            0.00    0.00    None
 62.1400         1.4925           0.0000          0.0000            34.17         2.90          0.0400            0.0000           0.6833       PFind                   None            0.00    0.00    None
  7.5000        11.7774           0.0000          0.0000            35.00         2.97          0.1000            0.0000           0.0000       PFind                   None            0.00    0.00    None
  8.3400        10.5930           0.0000          0.0000            35.00         2.97          0.0600            0.0000           2.1000       PFind                   None            0.00    0.00    None
  9.9600         8.8734           0.0000          0.0000            35.00         2.97          0.0800            0.0000           2.1000       PFind                   None            0.00    0.00    None
 64.2400         1.4487           0.0000          0.0000            35.00         2.97          0.0200            0.0000           4.9000       PFind                   None            0.00    0.00    None
 11.8400         7.4683           0.0000          0.0000            35.83         3.04          0.0800            0.0000           0.0000       PFind                   None            0.00    0.00    None
 38.9000         2.3133           0.0000          0.0000            35.83         3.04          0.1000            0.0000           2.8667       PFind                   None            0.00    0.00    None
 59.0600         1.5628           0.0000          0.0000            36.67         3.11          0.1600            0.0000           0.7333       PFind                   None            0.00    0.00    None
  5.0000        17.6591           0.0000          0.0000            37.50         3.18          0.1000            0.0000           1.5000       PFind                   None            0.00    0.00    None
  6.9200        12.7632           0.0000          0.0000            38.33         3.25          0.1200            0.0000           1.5333       PFind                   None            0.00    0.00    None
 27.5000         3.2408           0.0000          0.0000            39.17         3.32          0.0400            0.0000           2.3500       PFind                   None            0.00    0.00    None
 46.2200         1.9625           0.0000          0.0000            40.00         3.39          0.0600            0.0000           6.4000       PFind                   None            0.00    0.00    None
 55.1600         1.6637           0.0000          0.0000            40.00         3.39          0.1400            0.0000           4.8000       PFind                   None            0.00    0.00    None
  5.5800        15.8248           0.0000          0.0000            41.67         3.53          0.0600            0.0000           2.5000       PFind                   None            0.00    0.00    None
 38.8000         2.3190           0.0000          0.0000            41.67         3.53          0.1600            0.0000           4.1667       PFind                   None            0.00    0.00    None
  5.4800        16.1134           0.0000          0.0000            41.67         3.53          0.1400            0.0000           3.3333       PFind                   None            0.00    0.00    None
  5.3600        16.4739           0.0000          0.0000            42.50         3.60          0.1200            0.0000           1.7000       PFind                   None            0.00    0.00    None
 53.3800         1.7149           0.0000          0.0000            42.50         3.60          0.1600            0.0000           5.9500       PFind                   None            0.00    0.00    None
  7.4000        11.9364           0.0000          0.0000            44.17         3.75          0.0800            0.0000           2.6500       PFind                   None            0.00    0.00    None
 36.2400         2.4767           0.0000          0.0000            46.67         3.96          0.1000            0.0000           6.5333       PFind                   None            0.00    0.00    None
  4.7600        18.5490           0.0000          0.0000            48.33         4.10          0.1200            0.0000           0.0000       PFind                   None            0.00    0.00    None
 37.3400         2.4062           0.0000          0.0000            50.00         4.24          0.1600            0.0000           2.0000       PFind                   None            0.00    0.00    None
 55.0000         1.6682           0.0000          0.0000            50.00         4.24          0.0200            0.0000           4.0000       PFind                   None            0.00    0.00    None
 61.0000         1.5177           0.0000          0.0000            50.83         4.31          0.1600            0.0000           3.0500       PFind                   None            0.00    0.00    None
 37.4800         2.3976           0.0000          0.0000            50.83         4.31          0.1400            0.0000           6.1000       PFind                   None            0.00    0.00    None
 40.5000         2.2255           0.0000          0.0000            51.67         4.38          0.0600            0.0000           5.1667       PFind                   None            0.00    0.00    None
 48.3000         1.8827           0.0000          0.0000            52.50         4.45          0.1200            0.0000           5.2500       PFind                   None            0.00    0.00    None
  7.0800        12.4751           0.0000          0.0000            55.00         4.66          0.1600            0.0000           0.0000       PFind                   None            0.00    0.00    None
 19.9400         4.4491           0.0000          0.0000            55.00         4.66          0.1600            0.0000           8.8000       PFind                   None            0.00    0.00    None
 59.3400         1.5561           0.0000          0.0000            55.00         4.66          0.0000            0.0000           4.4000       PFind                   None            0.00    0.00    None
 37.5800         2.3914           0.0000          0.0000            56.67         4.81          0.1600            0.0000           5.6667       PFind                   None            0.00    0.00    None
 42.1400         2.1426           0.0000          0.0000            56.67         4.81          0.1600            0.0000           3.4000       PFind                   None            0.00    0.00    None
 50.7400         1.7978           0.0000          0.0000            56.67         4.81          0.1400            0.0000           6.8000       PFind                   None            0.00    0.00    None
  4.6400        19.0284           0.0000          0.0000            58.33         4.95          0.1000            0.0000           1.1667       PFind                   None            0.00    0.00    None
  5.1800        17.0459           0.0000          0.0000            58.33         4.95          0.0600            0.0000           0.0000       PFind                   None            0.00    0.00    None
 45.1000         2.0086           0.0000          0.0000            58.33         4.95          0.1600            0.0000           9.3333       PFind                   None            0.00    0.00    None
 50.1400         1.8179           0.0000          0.0000            59.17         5.02          0.1200            0.0000           9.4667       PFind                   None            0.00    0.00    None
 61.6400         1.5034           0.0000          0.0000            59.17         5.02          0.0000            0.0000           5.9167       PFind                   None            0.00    0.00    None
 31.0200         2.8806           0.0000          0.0000            61.67         5.23          0.1600            0.0000           3.7000       PFind                   None            0.00    0.00    None
 32.3400         2.7659           0.0000          0.0000            61.67         5.23          0.1400            0.0000           9.8667       PFind                   None            0.00    0.00    None
 50.9200         1.7918           0.0000          0.0000            61.67         5.23          0.1600            0.0000           2.4667       PFind                   None            0.00    0.00    None
 23.0600         3.8537           0.0000          0.0000            62.50         5.30          0.1200            0.0000           5.0000       PFind                   None            0.00    0.00    None
 30.2600         2.9512           0.0000          0.0000            63.33         5.37          0.1000            0.0000          10.1333       PFind                   None            0.00    0.00    None
 14.0800         6.2848           0.0000          0.0000            63.33         5.37          0.1200            0.0000           7.6000       PFind                   None            0.00    0.00    None
 51.3600         1.7775           0.0000          0.0000            64.17         5.44          0.0800            0.0000          10.2667       PFind                   None            0.00    0.00    None
 23.2400         3.8243           0.0000          0.0000            65.00         5.51          0.1000            0.0000           6.5000       PFind                   None            0.00    0.00    None
 32.2200         2.7760           0.0000          0.0000            69.17         5.87          0.1000            0.0000           1.3833       PFind                   None            0.00    0.00    None
 18.7800         4.7212           0.0000          0.0000            70.83         6.01          0.1000            0.0000           9.9167       PFind                   None            0.00    0.00    None
  6.0000        14.7180           0.0000          0.0000            75.83         6.43          0.0600            0.0000           6.0667       PFind                   None            0.00    0.00    None
 37.8200         2.3768           0.0000          0.0000            78.33         6.64          0.1600            0.0000          12.5333       PFind                   None            0.00    0.00    None
 34.8000         2.5758           0.0000          0.0000            79.17         6.71          0.0200            0.0000           6.3333       PFind                   None            0.00    0.00    None
 31.7400         2.8168           0.0000          0.0000            81.67         6.93          0.1200            0.0000          11.4333       PFind                   None            0.00    0.00    None
 55.8800         1.6440           0.0000          0.0000            84.17         7.14          0.1400            0.0000          10.1000       PFind                   None            0.00    0.00    None
 41.9000         2.1543           0.0000          0.0000            85.83         7.28          0.1200            0.0000          10.3000       PFind                   None            0.00    0.00    None
 33.2600         2.6915           0.0000          0.0000            93.33         7.92          0.0400            0.0000          11.2000       PFind                   None            0.00    0.00    None
  9.6400         9.1672           0.0000          0.0000            99.17         8.41          0.0800            0.0000           9.9167       PFind                   None            0.00    0.00    None
 39.6200         2.2729           0.0000          0.0000            99.17         8.41          0.1200            0.0000           7.9333       PFind                   None            0.00    0.00    None
 30.6400         2.9154           0.0000          0.0000           101.67         8.62          0.1000            0.0000          12.2000       PFind                   None            0.00    0.00    None
 35.5000         2.5266           0.0000          0.0000           104.17         8.83          0.0000            0.0000          12.5000       PFind                   None            0.00    0.00    None
 35.1800         2.5489           0.0000          0.0000           104.17         8.83          0.0200            0.0000          16.6667       PFind                   None            0.00    0.00    None
 24.4800         3.6333           0.0000          0.0000           110.83         9.40          0.1400            0.0000          13.3000       PFind                   None            0.00    0.00    None
 28.5000         3.1293           0.0000          0.0000           118.33        10.04          0.1000            0.0000          18.9333       PFind                   None            0.00    0.00    None
 36.7400         2.4442           0.0000          0.0000           124.17        10.53          0.0000            0.0000          17.3833       PFind                   None            0.00    0.00    None
 10.6800         8.2767           0.0000          0.0000           126.67        10.74          0.0200            0.0000          15.2000       PFind                   None            0.00    0.00    None
 31.4400         2.8430           0.0000          0.0000           127.50        10.81          0.1200            0.0000          20.4000       PFind                   None            0.00    0.00    None
 42.6000         2.1205           0.0000          0.0000           130.00        11.02          0.0600            0.0000          15.6000       PFind                   None            0.00    0.00    None
 23.7400         3.7448           0.0000          0.0000           132.50        11.24          0.0600            0.0000          15.9000       PFind                   None            0.00    0.00    None
 25.7200         3.4609           0.0000          0.0000           142.50        12.08          0.1000            0.0000          22.8000       PFind                   None            0.00    0.00    None
 60.1000         1.5382           0.0000          0.0000           142.50        12.08          0.1200            0.0000          14.2500       PFind                   None            0.00    0.00    None
 30.0400         2.9723           0.0000          0.0000           143.33        12.16          0.0600            0.0000          22.9333       PFind                   None            0.00    0.00    None
 35.7200         2.5116           0.0000          0.0000           165.83        14.06          0.0800            0.0000          26.5333       PFind                   None            0.00    0.00    None
 28.8000         3.0974           0.0000          0.0000           168.33        14.28          0.1000            0.0000          26.9333       PFind                   None            0.00    0.00    None
 45.7400         1.9820           0.0000          0.0000           176.67        14.98          0.0400            0.0000          28.2667       PFind                   None            0.00    0.00    None
  6.1600        14.3361           0.0000          0.0000           181.67        15.41          0.0200            0.0000          29.0667       PFind                   None            0.00    0.00    None
  6.4000        13.7990           0.0000          0.0000           189.17        16.04          0.0000            0.0000          30.2667       PFind                   None            0.00    0.00    None
 18.0000         4.9240           0.0000          0.0000           191.67        16.25          0.0600            0.0000          23.0000       PFind                   None            0.00    0.00    None
 27.6800         3.2201           0.0000          0.0000           193.33        16.40          0.1600            0.0000          19.3333       PFind                   None            0.00    0.00    None
 21.0400         4.2189           0.0000          0.0000           218.33        18.52          0.0000            0.0000          21.8333       PFind                   None            0.00    0.00    None
 18.9800         4.6719           0.0000          0.0000           230.83        19.58          0.0400            0.0000          27.7000       PFind                   None            0.00    0.00    None
 22.2400         3.9939           0.0000          0.0000           240.83        20.42          0.1600            0.0000          24.0833       PFind                   None            0.00    0.00    None
 50.3000         1.8125           0.0000          0.0000           274.17        23.25          0.1600            0.0000          16.4500       PFind                   None            0.00    0.00    None
 25.3200         3.5146           0.0000          0.0000           405.00        34.35          0.0800            0.0000          56.7000       PFind                   None            0.00    0.00    None
 24.8000         3.5871           0.0000          0.0000           450.00        38.16          0.0600            0.0000          72.0000       PFind                   None            0.00    0.00    None
  9.0600         9.7527           0.0000          0.0000           485.83        41.20          0.0800            0.0000          58.3000       PFind                   None            0.00    0.00    None
 28.0800         3.1751           0.0000          0.0000           504.17        42.76          0.0400            0.0000          70.5833       PFind                   None            0.00    0.00    None
 27.0400         3.2948           0.0000          0.0000           555.83        47.14          0.0000            0.0000          88.9333       PFind                   None            0.00    0.00    None
 12.6600         6.9864           0.0000          0.0000           565.83        47.99          0.0400            0.0000          79.2167       PFind                   None            0.00    0.00    None
 12.3800         7.1438           0.0000          0.0000           826.67        70.11          0.0000            0.0000          82.6667       PFind                   None            0.00    0.00    None
 26.8200         3.3214           0.0000          0.0000          1179.17       100.00          0.0200            0.0000         141.5000       PFind                   None            0.00    0.00    None