File: Generating XRD fingerprints/INPUT/Detrital data/GG_3_pf_SFT.txt
Filename:
	C:\Program Files\Thermo Electron\WinXRD\Datafiles\FIEN2\GEO\GG_3_SFT.pk

File Created:
	February 25, 2021 - 10:15 AM

Specimen Id:
	GG3 SFT

Specimen Name:

Specimen Description:

Comment:
Scan Type: 2Theta Scan
Start Angle: 3 deg.
Stop Angle: 65 deg.
Num Points: 3101
Step Size: 0.02 deg.
Scan Rate: 1.000000
Scan Mode: Continuous
Wavelength: 1.540562
\Kalpha1: 1.540562	\Kalpha2: 1.544390	\Kbeta: 1.392218

Optics:
		Detector:
			 Type: Fixed Slits
		Tube:
			 Type: Fixed Slits

Datas:
Peaks:

Position        Dspace          ESD(P)          Corr.Fact       Intensity       Rel.Int.        FWHM(L)         ESD(L)          Area            Source                  Curve           Strain  CSize   CSize_Source
[deg]           [A]             [deg]           [deg]           [CPS]           [CPS]           [deg]           [deg]           [deg]           [--]                    [--]            [--]    [--]    [--]
  4.9000        18.0193           0.0000          0.0000            50.83         2.50          0.1200            0.0000           2.0333       PFind                   None            0.00    0.00    None
  5.0400        17.5191           0.0000          0.0000            53.33         2.63          0.1000            0.0000           0.0000       PFind                   None            0.00    0.00    None
  5.1000        17.3131           0.0000          0.0000            60.83         2.99          0.1200            0.0000           0.0000       PFind                   None            0.00    0.00    None
  5.3600        16.4739           0.0000          0.0000            35.83         1.76          0.0400            0.0000           1.4333       PFind                   None            0.00    0.00    None
  5.4600        16.1724           0.0000          0.0000            49.17         2.42          0.1200            0.0000           2.9500       PFind                   None            0.00    0.00    None
  5.6600        15.6013           0.0000          0.0000            50.00         2.46          0.1200            0.0000           0.0000       PFind                   None            0.00    0.00    None
  5.7800        15.2777           0.0000          0.0000            65.83         3.24          0.1200            0.0000           1.3167       PFind                   None            0.00    0.00    None
  6.0200        14.6692           0.0000          0.0000            64.17         3.16          0.1400            0.0000          10.2667       PFind                   None            0.00    0.00    None
  6.2600        14.1073           0.0000          0.0000           145.83         7.18          0.1000            0.0000          20.4167       PFind                   None            0.00    0.00    None
  6.4600        13.6710           0.0000          0.0000            48.33         2.38          0.1600            0.0000           3.8667       PFind                   None            0.00    0.00    None
  6.6400        13.3008           0.0000          0.0000            45.83         2.26          0.1000            0.0000           7.3333       PFind                   None            0.00    0.00    None
  6.8000        12.9882           0.0000          0.0000            43.33         2.13          0.1600            0.0000           2.6000       PFind                   None            0.00    0.00    None
  7.0200        12.5816           0.0000          0.0000            40.83         2.01          0.0600            0.0000           2.4500       PFind                   None            0.00    0.00    None
  7.1600        12.3359           0.0000          0.0000            39.17         1.93          0.1200            0.0000           0.7833       PFind                   None            0.00    0.00    None
  7.3000        12.0996           0.0000          0.0000            36.67         1.80          0.1600            0.0000           4.4000       PFind                   None            0.00    0.00    None
  7.4600        11.8405           0.0000          0.0000            37.50         1.85          0.0000            0.0000           3.0000       PFind                   None            0.00    0.00    None
  7.6600        11.5318           0.0000          0.0000            36.67         1.80          0.1600            0.0000           0.7333       PFind                   None            0.00    0.00    None
  8.0400        10.9876           0.0000          0.0000            33.33         1.64          0.1400            0.0000           2.6667       PFind                   None            0.00    0.00    None
  8.2200        10.7474           0.0000          0.0000            34.17         1.68          0.1000            0.0000           2.0500       PFind                   None            0.00    0.00    None
  8.3600        10.5677           0.0000          0.0000            51.67         2.54          0.1600            0.0000           5.1667       PFind                   None            0.00    0.00    None
  8.9200         9.9055           0.0000          0.0000           555.83        27.36          0.0400            0.0000          55.5833       PFind                   None            0.00    0.00    None
  9.5000         9.3020           0.0000          0.0000            56.67         2.79          0.1600            0.0000           2.2667       PFind                   None            0.00    0.00    None
  9.7800         9.0363           0.0000          0.0000            49.17         2.42          0.0600            0.0000           0.9833       PFind                   None            0.00    0.00    None
  9.8800         8.9451           0.0000          0.0000            46.67         2.30          0.0400            0.0000           4.6667       PFind                   None            0.00    0.00    None
 10.1400         8.7163           0.0000          0.0000            38.33         1.89          0.1000            0.0000           0.7667       PFind                   None            0.00    0.00    None
 10.5600         8.3705           0.0000          0.0000            89.17         4.39          0.0000            0.0000           8.9167       PFind                   None            0.00    0.00    None
 11.0400         8.0076           0.0000          0.0000            39.17         1.93          0.1600            0.0000           0.7833       PFind                   None            0.00    0.00    None
 11.3800         7.7692           0.0000          0.0000            34.17         1.68          0.0600            0.0000           1.3667       PFind                   None            0.00    0.00    None
 12.2600         7.2134           0.0000          0.0000           316.67        15.59          0.1600            0.0000          38.0000       PFind                   None            0.00    0.00    None
 12.5600         7.0418           0.0000          0.0000           442.50        21.78          0.0600            0.0000          53.1000       PFind                   None            0.00    0.00    None
 13.0800         6.7630           0.0000          0.0000            29.17         1.44          0.1000            0.0000           2.9167       PFind                   None            0.00    0.00    None
 13.2600         6.6716           0.0000          0.0000            28.33         1.39          0.0200            0.0000           0.5667       PFind                   None            0.00    0.00    None
 13.7600         6.4302           0.0000          0.0000            40.00         1.97          0.1600            0.0000           0.0000       PFind                   None            0.00    0.00    None
 13.9000         6.3658           0.0000          0.0000            53.33         2.63          0.1200            0.0000           7.4667       PFind                   None            0.00    0.00    None
 14.9200         5.9328           0.0000          0.0000            29.17         1.44          0.1200            0.0000           0.0000       PFind                   None            0.00    0.00    None
 14.9800         5.9092           0.0000          0.0000            27.50         1.35          0.0200            0.0000           2.7500       PFind                   None            0.00    0.00    None
 15.8800         5.5763           0.0000          0.0000            29.17         1.44          0.0600            0.0000           0.0000       PFind                   None            0.00    0.00    None
 17.8600         4.9623           0.0000          0.0000           240.00        11.81          0.1600            0.0000          28.8000       PFind                   None            0.00    0.00    None
 18.8600         4.7014           0.0000          0.0000           183.33         9.02          0.0800            0.0000          22.0000       PFind                   None            0.00    0.00    None
 19.9000         4.4579           0.0000          0.0000           105.83         5.21          0.1000            0.0000          16.9333       PFind                   None            0.00    0.00    None
 20.1600         4.4010           0.0000          0.0000            33.33         1.64          0.1400            0.0000           3.3333       PFind                   None            0.00    0.00    None
 20.7400         4.2792           0.0000          0.0000            48.33         2.38          0.1600            0.0000           1.9333       PFind                   None            0.00    0.00    None
 20.9200         4.2428           0.0000          0.0000           350.83        17.27          0.0200            0.0000          35.0833       PFind                   None            0.00    0.00    None
 22.1000         4.0189           0.0000          0.0000           234.17        11.53          0.0600            0.0000          23.4167       PFind                   None            0.00    0.00    None
 22.6200         3.9277           0.0000          0.0000            33.33         1.64          0.0800            0.0000           0.6667       PFind                   None            0.00    0.00    None
 22.9600         3.8703           0.0000          0.0000           100.83         4.96          0.0000            0.0000          14.1167       PFind                   None            0.00    0.00    None
 23.5800         3.7699           0.0000          0.0000           155.83         7.67          0.1000            0.0000          18.7000       PFind                   None            0.00    0.00    None
 23.8400         3.7293           0.0000          0.0000            54.17         2.67          0.1600            0.0000           5.4167       PFind                   None            0.00    0.00    None
 24.3800         3.6480           0.0000          0.0000           120.00         5.91          0.0400            0.0000          14.4000       PFind                   None            0.00    0.00    None
 24.6800         3.6043           0.0000          0.0000           210.83        10.38          0.0600            0.0000          25.3000       PFind                   None            0.00    0.00    None
 25.2400         3.5256           0.0000          0.0000           350.83        17.27          0.0000            0.0000          42.1000       PFind                   None            0.00    0.00    None
 25.5600         3.4822           0.0000          0.0000           197.50         9.72          0.0200            0.0000          27.6500       PFind                   None            0.00    0.00    None
 26.2400         3.3934           0.0000          0.0000            27.50         1.35          0.0800            0.0000           2.2000       PFind                   None            0.00    0.00    None
 26.7000         3.3360           0.0000          0.0000          2031.67       100.00          0.0400            0.0000         203.1667       PFind                   None            0.00    0.00    None
 26.9000         3.3117           0.0000          0.0000           713.33        35.11          0.0000            0.0000         114.1333       PFind                   None            0.00    0.00    None
 27.6000         3.2292           0.0000          0.0000            78.33         3.86          0.1000            0.0000           9.4000       PFind                   None            0.00    0.00    None
 27.9600         3.1885           0.0000          0.0000           564.17        27.77          0.0000            0.0000          90.2667       PFind                   None            0.00    0.00    None
 28.3600         3.1444           0.0000          0.0000           121.67         5.99          0.0200            0.0000          17.0333       PFind                   None            0.00    0.00    None
 28.6200         3.1164           0.0000          0.0000           160.83         7.92          0.0800            0.0000          22.5167       PFind                   None            0.00    0.00    None
 29.9400         2.9820           0.0000          0.0000           195.00         9.60          0.1200            0.0000          31.2000       PFind                   None            0.00    0.00    None
 30.2200         2.9550           0.0000          0.0000            59.17         2.91          0.1600            0.0000           9.4667       PFind                   None            0.00    0.00    None
 30.4400         2.9341           0.0000          0.0000            79.17         3.90          0.1000            0.0000          12.6667       PFind                   None            0.00    0.00    None
 30.5400         2.9247           0.0000          0.0000           121.67         5.99          0.1000            0.0000          14.6000       PFind                   None            0.00    0.00    None
 30.8600         2.8951           0.0000          0.0000            33.33         1.64          0.0800            0.0000           3.3333       PFind                   None            0.00    0.00    None
 31.2800         2.8572           0.0000          0.0000           150.83         7.42          0.0200            0.0000          24.1333       PFind                   None            0.00    0.00    None
 31.6600         2.8238           0.0000          0.0000            85.00         4.18          0.1600            0.0000          10.2000       PFind                   None            0.00    0.00    None
 32.1400         2.7827           0.0000          0.0000           116.67         5.74          0.1200            0.0000          14.0000       PFind                   None            0.00    0.00    None
 33.1000         2.7041           0.0000          0.0000            62.50         3.08          0.1000            0.0000           3.7500       PFind                   None            0.00    0.00    None
 33.9800         2.6361           0.0000          0.0000            35.83         1.76          0.1600            0.0000           4.3000       PFind                   None            0.00    0.00    None
 34.1200         2.6256           0.0000          0.0000            40.00         1.97          0.0200            0.0000           0.8000       PFind                   None            0.00    0.00    None
 34.3800         2.6063           0.0000          0.0000            33.33         1.64          0.0400            0.0000           0.6667       PFind                   None            0.00    0.00    None
 34.6200         2.5888           0.0000          0.0000            92.50         4.55          0.1000            0.0000          14.8000       PFind                   None            0.00    0.00    None
 35.0800         2.5559           0.0000          0.0000           160.00         7.88          0.0600            0.0000          25.6000       PFind                   None            0.00    0.00    None
 35.4000         2.5335           0.0000          0.0000            69.17         3.40          0.1200            0.0000           2.7667       PFind                   None            0.00    0.00    None
 35.5400         2.5239           0.0000          0.0000            84.17         4.14          0.1000            0.0000           8.4167       PFind                   None            0.00    0.00    None
 35.8600         2.5021           0.0000          0.0000            29.17         1.44          0.0200            0.0000           0.5833       PFind                   None            0.00    0.00    None
 36.1400         2.4833           0.0000          0.0000            58.33         2.87          0.1400            0.0000           8.1667       PFind                   None            0.00    0.00    None
 36.6000         2.4532           0.0000          0.0000           159.17         7.83          0.1000            0.0000          19.1000       PFind                   None            0.00    0.00    None
 37.6200         2.3890           0.0000          0.0000            82.50         4.06          0.0400            0.0000          13.2000       PFind                   None            0.00    0.00    None
 37.7600         2.3804           0.0000          0.0000            85.00         4.18          0.1200            0.0000          13.6000       PFind                   None            0.00    0.00    None
 38.8800         2.3144           0.0000          0.0000            32.50         1.60          0.0600            0.0000           1.9500       PFind                   None            0.00    0.00    None
 39.5200         2.2784           0.0000          0.0000           109.17         5.37          0.1200            0.0000           8.7333       PFind                   None            0.00    0.00    None
 40.3200         2.2350           0.0000          0.0000            75.00         3.69          0.0200            0.0000           4.5000       PFind                   None            0.00    0.00    None
 41.3200         2.1832           0.0000          0.0000            40.83         2.01          0.1600            0.0000           0.8167       PFind                   None            0.00    0.00    None
 41.7600         2.1612           0.0000          0.0000            33.33         1.64          0.1400            0.0000           5.3333       PFind                   None            0.00    0.00    None
 41.9800         2.1504           0.0000          0.0000            43.33         2.13          0.1200            0.0000           6.9333       PFind                   None            0.00    0.00    None
 42.1400         2.1426           0.0000          0.0000            34.17         1.68          0.1600            0.0000           4.1000       PFind                   None            0.00    0.00    None
 42.5200         2.1243           0.0000          0.0000           165.83         8.16          0.0200            0.0000          19.9000       PFind                   None            0.00    0.00    None
 42.9600         2.1036           0.0000          0.0000            28.33         1.39          0.1600            0.0000           2.8333       PFind                   None            0.00    0.00    None
 44.3000         2.0430           0.0000          0.0000            30.00         1.48          0.0200            0.0000           0.0000       PFind                   None            0.00    0.00    None
 45.3000         2.0002           0.0000          0.0000            74.17         3.65          0.1400            0.0000          11.8667       PFind                   None            0.00    0.00    None
 45.6400         1.9861           0.0000          0.0000           251.67        12.39          0.0800            0.0000          40.2667       PFind                   None            0.00    0.00    None
 45.9800         1.9722           0.0000          0.0000            60.83         2.99          0.1600            0.0000           9.7333       PFind                   None            0.00    0.00    None
 47.2600         1.9217           0.0000          0.0000            29.17         1.44          0.1000            0.0000           1.1667       PFind                   None            0.00    0.00    None
 48.0000         1.8938           0.0000          0.0000            30.00         1.48          0.1600            0.0000           3.6000       PFind                   None            0.00    0.00    None
 48.1800         1.8872           0.0000          0.0000            54.17         2.67          0.1600            0.0000           3.2500       PFind                   None            0.00    0.00    None
 48.3400         1.8813           0.0000          0.0000            48.33         2.38          0.0200            0.0000           5.8000       PFind                   None            0.00    0.00    None
 48.4400         1.8776           0.0000          0.0000            34.17         1.68          0.1200            0.0000           5.4667       PFind                   None            0.00    0.00    None
 50.1800         1.8165           0.0000          0.0000           264.17        13.00          0.1400            0.0000          15.8500       PFind                   None            0.00    0.00    None
 50.6200         1.8018           0.0000          0.0000           131.67         6.48          0.0200            0.0000          13.1667       PFind                   None            0.00    0.00    None
 50.7400         1.7978           0.0000          0.0000            98.33         4.84          0.0000            0.0000          13.7667       PFind                   None            0.00    0.00    None
 51.1800         1.7834           0.0000          0.0000            38.33         1.89          0.1200            0.0000           1.5333       PFind                   None            0.00    0.00    None
 51.3400         1.7782           0.0000          0.0000            40.00         1.97          0.0600            0.0000           3.2000       PFind                   None            0.00    0.00    None
 52.3200         1.7471           0.0000          0.0000            27.50         1.35          0.1600            0.0000           2.2000       PFind                   None            0.00    0.00    None
 53.0000         1.7263           0.0000          0.0000            45.00         2.21          0.1400            0.0000           6.3000       PFind                   None            0.00    0.00    None
 53.2000         1.7203           0.0000          0.0000            45.00         2.21          0.0200            0.0000           6.3000       PFind                   None            0.00    0.00    None
 54.6800         1.6772           0.0000          0.0000            28.33         1.39          0.1600            0.0000           1.1333       PFind                   None            0.00    0.00    None
 54.9200         1.6704           0.0000          0.0000            85.00         4.18          0.1200            0.0000           5.1000       PFind                   None            0.00    0.00    None
 55.0600         1.6665           0.0000          0.0000            57.50         2.83          0.1400            0.0000           3.4500       PFind                   None            0.00    0.00    None
 55.3600         1.6582           0.0000          0.0000            62.50         3.08          0.0800            0.0000           7.5000       PFind                   None            0.00    0.00    None
 55.8600         1.6445           0.0000          0.0000           103.33         5.09          0.0200            0.0000          16.5333       PFind                   None            0.00    0.00    None
 56.1600         1.6364           0.0000          0.0000            32.50         1.60          0.0600            0.0000           0.6500       PFind                   None            0.00    0.00    None
 58.7800         1.5696           0.0000          0.0000            28.33         1.39          0.0800            0.0000           2.2667       PFind                   None            0.00    0.00    None
 58.9400         1.5657           0.0000          0.0000            31.67         1.56          0.1200            0.0000           3.1667       PFind                   None            0.00    0.00    None
 59.2000         1.5595           0.0000          0.0000            32.50         1.60          0.0400            0.0000           0.6500       PFind                   None            0.00    0.00    None
 59.4000         1.5547           0.0000          0.0000            28.33         1.39          0.1200            0.0000           1.7000       PFind                   None            0.00    0.00    None
 60.0000         1.5406           0.0000          0.0000           154.17         7.59          0.0400            0.0000          18.5000       PFind                   None            0.00    0.00    None
 60.1800         1.5364           0.0000          0.0000            99.17         4.88          0.1400            0.0000           9.9167       PFind                   None            0.00    0.00    None
 60.9400         1.5190           0.0000          0.0000            65.83         3.24          0.1000            0.0000           7.9000       PFind                   None            0.00    0.00    None
 61.0800         1.5159           0.0000          0.0000            40.00         1.97          0.0800            0.0000           3.2000       PFind                   None            0.00    0.00    None
 61.5400         1.5057           0.0000          0.0000            65.00         3.20          0.1200            0.0000          10.4000       PFind                   None            0.00    0.00    None
 61.6600         1.5030           0.0000          0.0000            65.00         3.20          0.1200            0.0000          10.4000       PFind                   None            0.00    0.00    None
 64.0800         1.4520           0.0000          0.0000            48.33         2.38          0.0200            0.0000           0.9667       PFind                   None            0.00    0.00    None
 64.1600         1.4503           0.0000          0.0000            34.17         1.68          0.0600            0.0000           5.4667       PFind                   None            0.00    0.00    None
 64.4200         1.4451           0.0000          0.0000            35.00         1.72          0.1200            0.0000           2.8000       PFind                   None            0.00    0.00    None
 64.6000         1.4415           0.0000          0.0000            29.17         1.44          0.0800            0.0000           0.5833       PFind                   None            0.00    0.00    None